step_num,timestamp,peak_g,step_interval,step_interval_var_5,peak_g_var_5,gyro_norm_at_peak,gyro_x_rms,gyro_y_rms,gyro_z_rms,lr_asymmetry,gravity_x_std,gravity_y_std,pitch_std,roll_std,heading_change,step_length
1,15:01:46,1.0804778518963842,0.5,0.0,0.0,4.664587581767068,1.3416871730102664,3.1815464920562926,3.4698330898044434,1.0804778518963842,0.32216454870428,0.47595402145324406,0.5110502368667657,0.675863390751935,0.0,0.41870465135269747
2,15:01:47,0.858214502218942,0.579300045967102,0.003144248645192249,0.024700498304918477,2.699662292065585,1.8946521281805107,3.519768967534563,3.56975115098373,0.2222633496774422,0.3061639424330105,0.5502188392039323,0.6299555683150335,0.6060678644239027,-0.1511691426041719,0.3440440668194492
3,15:01:47,0.696153717971016,0.3384789228439331,0.015062061499724185,0.03722828905306236,1.8728122422042255,1.729867910836681,2.6029741747957997,2.512771368473602,0.16206078424792603,0.2966595827839395,0.16833775685217958,0.2374317077994965,0.6361081936603726,-0.014445839149500928,0.4020032630245027
4,15:01:48,0.4289693148168907,0.43820202350616455,0.010337058970429544,0.07528933703354035,2.4097190531572155,1.7439026495331333,2.3246894099665094,2.7899602905396326,0.2671844031541253,0.2882392022363773,0.19895033498992884,0.32292093608916844,0.5764599930320786,-0.41250211230561573,0.3908457477919918
5,15:01:48,1.542125030346771,0.4349139928817749,0.007921938108594873,0.17695534403186852,2.859522709215646,1.775418230492935,1.8801647071783474,2.2506682183563558,1.1131557155298804,0.253454684954174,0.1513568406106235,0.2695940213901603,0.6064337217285024,1.7633279880770099,0.4667817545856199
6,15:01:49,0.43290793026493857,0.4606599807739258,0.007408846000882363,0.20924907327746203,2.3398161928609613,1.8524682433324193,2.3078116580861887,1.2041492744019031,1.1092171000818325,0.10645190668220572,0.045098425615829066,0.15723701571033355,1.3574771432139754,2.8671413392360288,0.35650729657875224
7,15:01:49,1.321660196643985,0.4579010009765625,0.002526817715396135,0.2676243872735798,0.9035045344217243,2.133462174336934,2.1986844382060604,0.9494855972550929,0.8887522663790464,0.07101722517541595,0.055718895796816506,0.18013405156717321,2.587347916345309,-2.486871070523989,0.44239146726568906
8,15:01:49,0.3569039291061843,0.41795897483825684,0.00031090430614000297,0.3225674910901176,0.34999070697625173,2.037672666343098,1.8784202789077518,0.862067919331351,0.9647562675378006,0.05017831002609752,0.05584520791610919,0.17899477089883725,2.077248284498417,2.4770376173509305,0.3795792317091126
9,15:01:50,1.1329542243066562,0.47783708572387695,0.0005512682435949045,0.2852738899386286,0.9898180715093504,2.230596979331219,1.8123909545596262,0.8718786321281444,0.7760502952004719,0.051997087808922586,0.05480379012046954,0.1743207524455953,2.4412918422289325,-2.3396438439217264,0.45116659581786916
10,15:01:50,0.5552014556592796,0.477558970451355,0.0005964245171696803,0.191493777605979,2.9129578809051417,2.105972972074277,1.737388536532786,0.8830899213774008,0.5777527686473766,0.06241705954089094,0.05462422052660101,0.1703205538296585,2.288005038868573,1.7879413687409706,0.3752123560547395
11,15:01:51,1.3573583816243069,0.39358794689178467,0.001419801989992209,0.21125971322239812,1.8998832780559491,2.2551415654203084,1.6706356347046643,0.8451480408067824,0.8021569259650273,0.04741381428456257,0.05835537350230773,0.17720948434180345,1.859739873947655,-1.6872286013386417,0.4412416324819378
12,15:01:51,0.34657008202065176,0.5021970272064209,0.0020986522283223505,0.21769115734862196,2.347479884481601,2.1035916312949188,2.022093028668688,0.7808473330480705,1.010788299603655,0.04994652701909264,0.05882650540162517,0.17664782316435101,0.7761833725571142,1.5517756258418376,0.36528635395134984
13,15:01:52,1.201073899532953,0.4182140827178955,0.002094090008721139,0.19438121973448236,0.2704331425073791,2.251613950021812,2.1903963061562366,0.7411007775283315,0.8545038175123013,0.041521950077314934,0.05930301244331874,0.17480912283402497,0.6579529680979022,-1.8275846468458852,0.4445824291844537
14,15:01:52,0.34779388641706993,0.39785897731781006,0.0024153292886339274,0.23353776230194545,1.0545399991001858,2.0802640777822083,1.9660709718943878,0.7011602230439469,0.8532800131158831,0.029521555556847743,0.060420313542784716,0.17575773530501232,0.725971227552133,1.864595179042348,0.3807863797206338
15,15:01:53,1.1450048114113633,0.47815096378326416,0.002427143216156935,0.24224422030085196,3.7866734706449128,2.4198641162866363,2.1016655897217027,0.7792975467103486,0.7972109249942934,0.03411787434693312,0.06625084685278963,0.18071806779239252,0.6548851615828453,-2.167673158705475,0.44241942038600846
16,15:01:53,0.3925973405542055,0.39784204959869385,0.0023362921486452136,0.19791646389720574,1.4574446060322497,2.2855952276023856,2.302949655434544,0.8431136457069071,0.7524074708571579,0.038107422567769174,0.06541575785222534,0.1791336157540333,0.7667116496403171,2.0221883541627594,0.40799219249286667
17,15:01:53,1.4472474438498892,0.45804691314697266,0.0013278072640972027,0.25307857342983475,1.2593124292929334,2.4796346566508567,1.9941234551433349,0.9602087074398465,1.0546501032956836,0.05793661111139395,0.06591899880315008,0.17559516769555614,1.0765095176277857,-2.0694941059660943,0.45820808328821494
18,15:01:54,0.6004120770143763,0.47607600688934326,0.0016557760298240964,0.23684097423116401,2.81096409019993,2.2114092574144024,1.9029432015121202,1.0175472796287477,0.846835366835513,0.06909284423556893,0.06069330613677535,0.17136090520454011,1.3561525634745348,1.9467564439171758,0.40021514756743004
19,15:01:54,1.3491895270900203,0.3997340202331543,0.0016154757440105527,0.21768479176286404,1.8835402175196987,2.4248054509465486,1.864989568242555,0.9122740714211494,0.748777450075644,0.05311901292022494,0.06252184191204968,0.1774677155930862,1.0829422366396517,-1.8172272286794304,0.46305202060410017
20,15:01:55,0.6228425163611949,0.49747800827026367,0.0020398183116199673,0.2309347504885753,3.8351757385646215,2.242203528443457,1.7566260645930027,0.8869439051642481,0.7263470107288253,0.07054731032259597,0.059893928649971985,0.16925563440075106,1.526780093242991,1.7015914479742107,0.37910657812977977
21,15:01:55,1.5536026807341903,0.3781440258026123,0.002590107815376541,0.21615613683874985,2.8920301637875876,2.4042611502533733,1.9797811104142677,0.9324586210610811,0.9307601643729954,0.058473724820478155,0.0613793094042869,0.17146230275612093,1.5225202339305117,-1.6470347917196926,0.47681443007333507
22,15:01:56,0.476469616354516,0.5178079605102539,0.0037869882439736102,0.243203238135842,3.513097852184588,2.255524964792371,2.0421406325293567,0.9952285814196864,1.0771330643796744,0.0633811920738029,0.06139779157761748,0.17308174670335802,1.087446609453163,1.5903059804648438,0.3733087499236133
23,15:01:56,1.3175155917026475,0.3780679702758789,0.004618841848343891,0.23128146369177763,2.7862664883226635,2.338397847923018,2.3357238748883007,0.9462528529064458,0.8410459753481315,0.055369437806291014,0.05680783415735536,0.16611642782526742,1.0507295995464891,-1.603935157471366,0.46987687456631627
24,15:01:57,1.0485734692324349,0.5749750137329102,0.007736731410955143,0.2064777654050134,1.8577829106533736,2.3122700494308788,2.0000226224941278,1.046475508710832,0.26894212247021265,0.053699006894827,0.053643179876340825,0.1537015313933296,0.6509509187850129,0.14360146501761062,0.3897947278785545
25,15:01:57,1.1724224697649808,0.316133975982666,0.011758416182328802,0.16220187945972403,1.3888445921994408,2.367017326298983,2.041666685731175,0.8959690862201414,0.12384900053254588,0.051427526175222976,0.05570901613496592,0.15520466677354497,0.6386336653710584,-0.3704725299814481,0.47092803780221026
26,15:01:57,0.41764137549708913,0.41813600063323975,0.010980872741058079,0.17043680767929897,1.5956320043079524,2.118769403773617,2.134712543288586,0.9497382610533008,0.7547810942678916,0.05920106121058059,0.055550097600546265,0.15684410405054766,0.7450689515221015,1.983758224338311,0.39166150242820663
27,15:01:58,1.8375905187458192,0.4425150156021118,0.009224039932878726,0.2618996901662964,3.551341594871337,2.5272331491390867,2.3154771734673383,0.9666149037217608,1.4199491432487301,0.048704579124710976,0.06530336050796878,0.17336909813742948,0.6603112952044552,-2.153767954661416,0.4819470376713598
28,15:01:58,1.011997214176702,0.5775589942932129,0.012405800538995494,0.25631488209546827,3.0077864044207065,2.590684804127768,2.2203951722065423,1.122153692478579,0.8255933045691173,0.04719050741409647,0.06678546380682948,0.1791583352981051,0.69914210930162,0.28611101092343494,0.4138528811586965
29,15:01:59,1.2205081991160973,0.2984400987625122,0.012613582279310264,0.258008641354489,1.2138684497474734,2.515344576886024,2.2606721611456733,0.9390440766987579,0.20851098493939535,0.04348462759018986,0.062107554211718055,0.1717736295334631,0.6898429901108556,-0.34844694237522345,0.4868197500820007
30,15:01:59,0.5256007029645844,0.3979148864746094,0.01009021278643303,0.32862158904352856,1.0615458803100286,2.189658779715357,2.182491938686375,0.982158525049384,0.6949074961515129,0.05016779780023183,0.05712824719808263,0.1639676523907622,0.7668619801115945,1.9215195073573166,0.4202287580761516
31,15:02:00,1.397792988604833,0.45787203311920166,0.010231621692820169,0.23405382612145265,2.268670881906551,2.308385004165413,2.051239299675233,1.0922737672665417,0.8721922856402486,0.057429145433961416,0.05774073800201399,0.15902724336016516,0.6484648168638232,-1.9560700288321682,0.4502569728984308
32,15:02:00,0.40959473103250865,0.47776103019714355,0.010614978773428164,0.1857202535329418,3.1747623345276414,2.141762997570831,1.954796811688146,1.0244801339379637,0.9881982575723244,0.06625717474655109,0.05313663559365997,0.14902788796438166,0.7053392203181437,1.4585313030577582,0.38946559872103464
33,15:02:00,1.1581741488969621,0.37813901901245117,0.005043025565673531,0.19722212869714714,2.8665490272660663,2.304382490926797,2.1150257346147954,0.9497568073743365,0.7485794178644535,0.0495443700971772,0.05806998011900356,0.1599467588374056,0.6186062552551173,-1.6132301454975446,0.4739165733930472
34,15:02:01,0.47220640993697643,0.4379899501800537,0.001710200130557382,0.20513417444911675,1.8562594435052029,2.1384791817531053,2.1924808854186844,0.967727111763482,0.6859677389599856,0.05496438746406141,0.057308304769715004,0.16640118156500883,0.7258416458260979,1.9868238300208663,0.40083116485364767
35,15:02:01,1.4828572549813317,0.458204984664917,0.0014719198546913504,0.26057346149970106,1.3167353879922838,2.3606035456376246,2.0644422281777284,0.8210555584330262,1.0106508450443552,0.03985609210862309,0.058381206138657896,0.17109923521290393,0.6575087560094042,-2.0956548496620746,0.4490884141276706
36,15:02:02,0.5236892711757271,0.4727480411529541,0.0016342842890708198,0.23259060658321584,2.5551847365026914,2.248662203862408,1.9370111883313037,0.8763404368166617,0.9591679838056046,0.06121678348854039,0.05694400598645116,0.16185640625557596,1.2987497055187807,1.8705140917034608,0.3965264810061037
37,15:02:02,1.2761145730889911,0.3978769779205322,0.001600780747992303,0.20958377024958258,2.203663839360364,2.4961999178688727,2.0564629108467214,0.9745834508732699,0.7524253019132641,0.05615489147532986,0.05947985333336355,0.163002547944567,1.2907635338074137,-1.8921302086691432,0.4603551385305313
38,15:02:03,0.5415600758730816,0.41818296909332275,0.0009033113323340557,0.23149817642111153,0.3704126399114648,2.1595393780488568,1.8764495294209484,0.9735759842199458,0.7345544972159095,0.05371846341893264,0.05578000923669842,0.15428239575812408,0.7421515388456582,2.2272353445969135,0.3943236895909041
39,15:02:03,1.3310180106479577,0.4377681016921997,0.0009032114310556949,0.21279563575015825,3.129328962691603,2.2443952258550026,2.0718058460112863,0.9414837009485527,0.789457934774876,0.04808857360035706,0.056188390317879575,0.155173721795813,0.6672892380062476,-2.108214699702779,0.47866347959612227
40,15:02:03,0.40331183539492116,0.43776094913482666,0.0007695978468333919,0.2020049045690945,1.2344366647142944,2.122824098775496,2.197073603477221,0.8425643423141557,0.9277061752530364,0.046408171624304655,0.04858970722538052,0.14327392543364947,0.7547088940685472,2.1069443850812215,0.39716131127349735
41,15:02:04,1.2145396241394062,0.45838499069213867,0.0005244535159036445,0.1967857578308451,4.099917878427812,2.401962121661147,2.0841978700553123,0.8900935045219152,0.811227788744485,0.045167051195229825,0.05771021297732607,0.15675514736235224,0.6822319470274661,-2.225373333715575,0.4712576021348097
42,15:02:04,0.40724785585058865,0.4179799556732178,0.00028244755049655623,0.20753404646311124,0.4042510285928331,2.2529148803058625,2.152473984608481,0.9255075046930424,0.8072917682888175,0.05437600549572108,0.05912004118294248,0.16395705238628167,0.8047692047891233,2.243476636366724,0.38951340546783936
43,15:02:05,1.1638371851000506,0.4576810598373413,0.00028179212182095626,0.21093648320447342,3.546352191902603,2.5470441567162982,2.0839860931587433,0.8664050797146589,0.756589329249462,0.04484071394512248,0.0720094665077171,0.18587647906774432,0.7230006365048062,-2.287314417708221,0.4659936097428432
44,15:02:05,0.5575712358316605,0.49746203422546387,0.0008706925637412156,0.16543909601539974,3.714114857517604,2.4525723669383606,1.9636621080812275,0.960698063075105,0.6062659492683902,0.05140016974099546,0.07254202059097123,0.18798810290892004,0.7488233306661021,1.5632710762663935,0.3822795898946789
45,15:02:06,1.3764748558932267,0.3784569501876831,0.002051270565452512,0.1864961523768795,3.2225572545661705,2.4516456218675913,2.1143607164953853,0.915777644127927,0.8189036200615663,0.040595301679377534,0.06678957020999748,0.18089904230994397,0.6567343738035183,-1.7131846858967743,0.4796043482147096
46,15:02:06,0.5065545704869482,0.517382025718689,0.003230940073710542,0.19095240453480314,4.383747605479506,2.2611972239808886,2.243118269439979,0.9869098153892107,0.8699202854062785,0.05170566592407814,0.061542492993675535,0.17058505441718735,0.7370636657507357,1.413186037478217,0.3715544108762812
47,15:02:07,1.4752409287299535,0.3582940101623535,0.005012172445414365,0.20809793562049553,2.3671088907616227,2.3386811560626084,2.2716987633897827,0.9317426503305354,0.9686863582430053,0.044689500868360654,0.06561177834663444,0.17829905122368497,0.6878972735303429,-1.5038678711805888,0.49346777744253156
48,15:02:07,0.41230493914762345,0.4380069971084595,0.004933906872328464,0.26548173206871956,1.6148977347322315,2.2468266007827222,1.9433030525959476,1.1130803896614911,1.06293598958233,0.04344048496524829,0.06204754849143497,0.16566060200891475,0.7560719623410963,2.0382658256918655,0.40877351167277215
49,15:02:07,1.1936941807118195,0.4382970333099365,0.003872616020227326,0.24843080886884158,3.483292108062443,2.5549585119662526,2.2318263267830916,1.1381946276467598,0.7813892415641961,0.03534862989732346,0.07485765402184544,0.18655620269792872,0.6797931670047139,-2.214302406006881,0.47761749020632227
50,15:02:08,0.4523354478375184,0.4176599979400635,0.00324636234697806,0.24197791411152625,0.9165047723049223,2.4074884789114748,2.280429891284064,0.9776582559161389,0.7413587328743012,0.040863609763062074,0.07400251245931669,0.18948501403569262,0.788559031865572,2.162471857902219,0.4120114323347377
51,15:02:08,1.305078186748594,0.45811891555786133,0.001475913413102603,0.24913987386664654,4.0449391674353254,2.4250879343013447,2.3866597477282196,0.9562837702792775,0.8527427389110758,0.03647857597512103,0.06662102957114495,0.178967146895082,0.7066135529241006,-2.249687976530821,0.4687702757033347
52,15:02:09,0.3653180987158435,0.41764700412750244,0.00028766104112349923,0.21387703724849152,0.5159895430355037,2.1608953362287218,2.3428648872177034,0.8953284512333789,0.9397600880327506,0.042204066385237445,0.059567355711107,0.16991570863716626,0.7572846488604082,2.044655888876034,0.3813335995621665
53,15:02:09,1.318707668055356,0.45817601680755615,0.00040997218237777134,0.22707419756874472,1.280654191792509,2.387875472082749,2.108478106145607,1.015659243268912,0.9533895693395125,0.039506503997486064,0.06555967034918178,0.17749395574870142,0.6482012649844345,-2.10979340321214,0.46395152774533194
54,15:02:10,0.6057093828608403,0.4973529577255249,0.0011168600677777362,0.21782121452517167,3.2601557347024595,2.250193758876536,2.0326613809564464,1.1030537430128695,0.7129982851945157,0.05305619265545995,0.06317579803883712,0.16871990774872617,0.7452046802498098,1.5575402016686013,0.39073789903426503
55,15:02:10,1.2696361696935694,0.37849605083465576,0.0020528110285624734,0.20549059025376448,3.0901220649098087,2.378851874144898,2.3326615956519015,1.0438196787050882,0.6639267868327291,0.04786804322853708,0.05625528964529435,0.15920962627421223,0.6720462367700398,-1.7803780507851146,0.47903635445854187
56,15:02:10,0.41774764045304186,0.41770195960998535,0.002052933407708224,0.21558128349377298,0.4725573748783944,2.2021498697702566,2.254134429548176,0.9113255207483062,0.8518885292405276,0.052855015298707723,0.05156628505440499,0.15375391647356804,0.7881067643087374,2.1620777630903167,0.38912863171014345
57,15:02:11,1.311547174409738,0.4578810930252075,0.002050234542554108,0.19116191994894755,2.6937410817621616,2.3918812549238107,2.1684287592368006,0.9458422888319191,0.8937995339566962,0.0458027736736554,0.054767182206112354,0.16034398924105484,0.7383014049281484,-2.251051795348592,0.4673102724022692
58,15:02:11,0.5026059067279554,0.5177329778671265,0.003243672234549422,0.18806181196701624,3.405777814140194,2.222767668307671,2.143235072364566,0.9420890090716664,0.8089412676817826,0.04721712649819859,0.05313378655817367,0.1592351449653851,0.8147964188791883,1.5239894652144774,0.3845248626876711
59,15:02:12,1.321824047980162,0.3782259225845337,0.0034897210335344655,0.21337861160311553,2.888141972233,2.376549648929892,2.157264861221834,0.908189416311251,0.8192181412522066,0.03588262856947478,0.05519736555522741,0.16428468812753025,0.7636631087108844,-1.4881944901238198,0.4770969748375072
60,15:02:12,0.4756344689802175,0.4178270101547241,0.002786106567950242,0.21839539163134827,1.0213841406808,2.2823641723936237,2.2765446614043596,0.9291220934871471,0.8461895789999445,0.04915897545887843,0.05387863719582933,0.15832874936067887,0.8187656262039233,2.0949051362811093,0.4008187199697766
61,15:02:13,1.5295741169112511,0.4379720687866211,0.002663839404166879,0.2498636294906,3.3095275517350236,2.50449636496498,2.357639420384061,0.9644711127777627,1.0539396479310337,0.048583908186250614,0.06033701010484397,0.16385102848016808,0.6921289326598224,-2.1801985274045466,0.48221193453001887
62,15:02:13,0.4582588932290862,0.4176069498062134,0.002666988414173943,0.2746112427800159,2.1296892731904724,2.2339185540291355,2.3619271461105193,0.8884133711413276,1.071315223682165,0.047849034907966166,0.0611649107945051,0.17013461246370185,0.7658420083950416,2.188655656506855,0.40463871851321537
63,15:02:14,1.4641897853417005,0.4582279920578003,0.0008801132636307329,0.2888715179529195,3.319569086613739,2.4357116170001754,2.1870852310525324,0.8632611799153718,1.0059308921126142,0.038504306066148394,0.06300177637783788,0.17445571240263152,0.6790925531042821,-2.203316169812569,0.46612251953664025
64,15:02:14,0.4069577617591742,0.41800904273986816,0.0003264750916301296,0.33187880066914127,0.38873239222997413,2.2137006985035454,2.2781814487660634,0.9213612536804351,1.0572320235825263,0.048139985706739545,0.06157713543616068,0.1792980496093576,0.8230580716180682,2.1474313060746155,0.3778009021141099
65,15:02:14,1.244598723151485,0.45746302604675293,0.00040084818720771405,0.2996965567807428,2.414221805449243,2.475251047982385,2.185615522238299,0.8141874314519855,0.8376409613923108,0.03926905003043626,0.06683269648922545,0.1887080831243528,0.7590434561388754,-2.1309963800661853,0.45005859776869933
66,15:02:15,0.4450012987072285,0.41842401027679443,0.0004761372462709801,0.25900927736928014,0.6184609667863463,2.2782200862801196,2.0036377992434304,0.781877718026916,0.7995974244442565,0.043127916456448825,0.0633314566650677,0.1787256620315897,0.8490702085727535,2.1022301361277203,0.403413427470198
67,15:02:15,1.4982128932624048,0.4580059051513672,0.00047250796084625786,0.2956360416872681,3.545665298928381,2.619658254844433,1.9917077879251874,0.8358144972542105,1.0532115945551763,0.043831404810770254,0.06524153674297237,0.17758190356049922,0.7550072038181466,-2.1526937725073676,0.4679328182567646
68,15:02:16,0.4831655737624495,0.4775940179824829,0.0007044006979313622,0.2662111974307824,3.1789481554988956,2.4374101915756317,1.807436630970703,0.9217850592756293,1.0150473194999554,0.050049039129211645,0.06345948309747532,0.17600401194759713,0.7754452764269678,1.6476507251941812,0.3953072548648995
69,15:02:16,1.3527203247584683,0.3781470060348511,0.0015780763369505737,0.25187132642632637,2.5072485816221497,2.503287238042085,2.1351980509245547,0.9044392279080338,0.8695547509960188,0.04654523624373948,0.06114461306739624,0.17377279529157177,0.6780042527652218,-1.6963465254660703,0.47615792733349954
70,15:02:17,0.4270351462249876,0.4181410074234009,0.001503218508761961,0.2875033920690148,1.4197952743529085,2.131954236178979,2.2097641828597516,0.8553940447284843,0.9256851785334806,0.05812066910514098,0.05591189934536804,0.1700957791838313,0.8402242448890301,2.1992069573494737,0.3695536002632183
71,15:02:17,1.2730442933714698,0.4378349781036377,0.0014656195420528206,0.26058845453975255,2.297136605177947,2.363443611067985,2.084250780962319,0.7583784508020545,0.8460091471464822,0.04760969990699395,0.05959001417837967,0.17646924207398754,0.7659320215356277,-2.1672116508441026,0.45991508359700656
72,15:02:17,0.42176111505694647,0.4183330535888672,0.0013031159400114234,0.2278661850559585,0.5937138172561813,2.144759379662631,2.062692523003471,0.833012047980642,0.8512831783145234,0.05634397066142639,0.05657947227743078,0.17382721983687818,1.4273562306276002,2.393603345494931,0.3882919793467345
73,15:02:18,1.290541659944019,0.45789992809295654,0.0008727373561569608,0.23374820953041692,3.1061581097666804,2.520458945470171,1.9293867480657778,0.8415125911423945,0.8687805448870725,0.053311493574914805,0.0662130412640228,0.1872128168420437,1.422258282532298,-2.2884992999554195,0.45827526491541054
74,15:02:18,0.3405869857770961,0.41801202297210693,0.00031506200971449517,0.23635623357774518,1.556445655086541,2.3561725780303986,2.0027686116356174,0.9781008503557932,0.9499546741669228,0.06469188150957902,0.06550427343651864,0.18766790875583284,1.733047503301837,2.4978252381939416,0.38775420688255324
75,15:02:19,1.971559576254243,0.47795403003692627,0.0006745986398996706,0.46359522296940836,2.0509130267848454,2.5903272101999044,2.1084329507383655,0.9837449668371493,1.630972590477147,0.06397283183659735,0.06518749424165575,0.18706016264407796,1.7427045645312844,-2.2421503286528948,0.4917194565236393
76,15:02:19,0.6923498468829368,0.4574849605560303,0.0007108348633053652,0.4690340685069524,4.023698502128361,2.5101353782376994,2.1573551992758753,1.1633172643746938,1.2792097293713063,0.06968563864069478,0.06991613351173091,0.18724817933241325,1.5074387939900211,2.167892399709149,0.3950546959528497
77,15:02:20,1.1427854137476436,0.3780860900878906,0.001590281945534855,0.3849666001021714,3.0582373278093167,2.5901653052507427,2.275857135026578,1.0487041213766675,0.45043556686470687,0.05922745544986038,0.06866896158077795,0.1853789760715927,1.500426820122489,-1.8355337194493373,0.4539791903030155
78,15:02:20,0.7658864121165923,0.4981689453125,0.0023175429864537023,0.386772761392811,3.244019592165131,2.1919235795861733,1.7153472759245652,0.7516866597990506,0.3768990016310514,0.05515018045325972,0.0601617515972032,0.17434413451320088,0.7956144300767215,1.5999597694798569,0.3896960871033748
79,15:02:21,1.2433448803628229,0.3775850534439087,0.003208957151780112,0.25996077860448485,2.5591559634655248,2.4092527219969537,1.8913429562408752,0.7557092265487256,0.4774584682462306,0.04251915203012793,0.07227424994112686,0.19802978633326832,0.7384202918959305,-1.65231028832353,0.46065993112207393
80,15:02:21,0.3560012826270734,0.4182668924331665,0.0027247942180437692,0.1289785555689219,1.555843657856663,2.2412444824774433,2.237979751584348,0.8029191368538655,0.8873435977357494,0.049133744404118586,0.07169413789939007,0.19992444326671074,1.5231540500891239,2.246969514413391,0.3729979629339271
81,15:02:21,1.4242724097044959,0.45769405364990234,0.002728103138149152,0.18205952119962218,2.2373950507190594,2.47854956934378,2.049748139122006,0.7486225198609766,1.0682711270774226,0.04269767167473647,0.07310990960724859,0.20188865844558393,1.5411889316631575,-2.1919925358367482,0.449288077139988
82,15:02:22,0.406024971239703,0.41813600063323975,0.0020902251554943516,0.2330348132283267,0.3385273345712049,2.2882837031383056,1.702138673851062,0.7355347737604337,1.0182474384647928,0.048450989744379516,0.0693405757638566,0.19927891597703587,1.417908018106633,2.3991991024573003,0.3671449378417465
83,15:02:22,1.3454148643348054,0.4377239942550659,0.0008806982383902096,0.27898904394233853,2.282300304678299,2.426698038348495,1.831960764115086,0.6860340114001854,0.9393898930951023,0.0412292054010859,0.06897313474159925,0.19899029169261545,1.4007255918693373,-2.2117608408990503,0.45405004799887333
84,15:02:23,0.48170060340320603,0.4979339838027954,0.0011119743847842756,0.28520577954030485,3.7745092788291603,2.287126663612703,1.9733889573484602,0.7925142960940442,0.8637142609315993,0.049911938931056464,0.06209312590998717,0.1844759462348021,1.3863511737860208,1.5674113405057128,0.3848737778643501
85,15:02:23,1.4785745039609,0.3781399726867676,0.0019894470018854806,0.28652353731723323,1.9062580071898236,2.4772986849164287,2.1118187416242447,0.817211394578369,0.9968739005576939,0.04393371064425219,0.07102619991612305,0.19914590010493757,1.3623976897268983,-1.6295853873840587,0.4685797989188355
86,15:02:24,0.5795077631341727,0.5222541093826294,0.003461173363362491,0.26153156360883006,3.7902486114234053,2.333912309547283,1.6745977250950972,0.8136893937090767,0.8990667408267272,0.04995086413329128,0.06977007031943033,0.19465409358460928,0.8171055998656548,1.5815997985220078,0.37341731362604863
87,15:02:24,1.1571829653281962,0.3783109188079834,0.004429552969118333,0.2045350574905035,2.1468805480197757,2.430513576978102,1.818854312780541,0.7833585436616383,0.5776752021940235,0.04388073656352266,0.06239609614037378,0.18285508155177851,0.7354993549637839,-1.504552514643816,0.45561561162826353
88,15:02:25,0.6115931618410734,0.5175520181655884,0.0054985543063097,0.1886074415487819,4.206272970556547,2.257174262244644,1.9218496479903946,0.9045778475258144,0.5455898034871228,0.06033583936109424,0.05790145790426165,0.17039284419999842,1.0921095399951992,1.5469504377811703,0.3863289314543673
89,15:02:25,1.3318434027812167,0.3783860206604004,0.006019986778089504,0.1716241063790367,4.172142294686213,2.4351372014520383,2.140470738195451,0.9296901476212717,0.7202502409401433,0.057313960005729456,0.05748948973129992,0.17039004295742483,1.0707130220716534,-1.583808425843096,0.4760933422691047
90,15:02:26,1.310817722587792,0.5972909927368164,0.009402777024313025,0.13977284496956263,3.561303468666884,2.4088818883389234,2.1808133456417087,1.0516807972289497,0.021025680193424767,0.056314842874018195,0.058465404575250166,0.16961499143812783,0.6904674823354026,0.33934397738642275,0.4060760833924893
91,15:02:26,1.547221721153169,0.2982749938964844,0.014565086735797195,0.1244850659240167,3.895307346866432,2.5538234461814544,2.172734079525002,0.9642506245777427,0.23640399856537697,0.06036328874861382,0.06389910731982004,0.17826151833754644,0.714050440430454,-0.29634023774902185,0.48140223258251613
92,15:02:26,0.4901962451748836,0.49762797355651855,0.014092278102327781,0.22498112810287857,3.7228637420984048,2.3997380678291984,2.0082089570143573,0.9775014573480573,1.0570254759782853,0.07032145461963425,0.06553071632454727,0.18823304129217577,1.415386844800165,2.2450606224616205,0.36179323228875904
93,15:02:27,1.346495298111198,0.3783470392227173,0.013810831611579033,0.1688417943077076,3.3469563380718816,2.539937099693937,2.1385428008281275,0.8154140499094736,0.8562990529363144,0.04633571223537163,0.06486961051309148,0.19190496827349554,1.4284315425502432,-1.855579837623939,0.4755023646718526
94,15:02:27,0.5334166882078242,0.5174540281295776,0.014090902037015953,0.24582696083084837,3.7425632367456356,2.3254034454601773,1.7207385289044457,0.7782839513477493,0.8130786099033738,0.049249750164692845,0.06139476750325763,0.18511477588443007,0.8948451573044467,1.551143591281674,0.3589263534126691
95,15:02:28,1.2327609608075818,0.3786379098892212,0.008402559644754603,0.23669566685187116,1.6108331345472529,2.428562128040489,1.7283794713453733,0.7127097367223102,0.6993442725997576,0.04256267460324383,0.06010905001595697,0.1824644647490072,0.8085830652549758,-1.3259622860429063,0.45935978165597685
96,15:02:28,0.35080351044985597,0.41762101650238037,0.004341513695950993,0.21358310780416834,1.5918096415892087,2.109840979467204,1.640220536779486,0.7992387438445165,0.8819574503577259,0.05173336248361477,0.05911071515243534,0.17958406375669123,1.5583785524072276,2.1305500906212127,0.3649403495407716
97,15:02:28,1.256935531239035,0.45798802375793457,0.0034727169847172945,0.21594367534747133,2.2263717037415187,2.3082982906481626,1.7497732010242495,0.8247278751741953,0.906132020789179,0.05147287443003995,0.0575103072564496,0.17362207519415424,1.5447988040162786,-2.1461442854805144,0.44677844288365387
98,15:02:29,0.3870459666922059,0.41793298721313477,0.0027635706491039966,0.20700488516286092,1.374119668424805,2.1267539576620447,1.698771082420138,0.904927824682157,0.869889564546829,0.049345801440577874,0.057012624572879866,0.17576638552606721,1.3686866991108284,2.114000602543663,0.3898758783529128
99,15:02:29,1.2126413996097605,0.45830607414245605,0.001111330122104448,0.2249751473747778,2.5210096688358736,2.3853952945627532,1.6669861116930826,0.8244968234754873,0.8255954329175546,0.040102501780744926,0.05880562001218598,0.17795248393453544,1.3499891630138976,-2.16472425947243,0.44463986171460834
100,15:02:30,0.33866039648419877,0.3977699279785156,0.00073054092487439,0.23074957904693294,0.641604802578533,2.186545665526474,1.7455632522145992,0.81781901224687,0.8739810031255617,0.04144979037300408,0.05771733537243221,0.17993964998547607,0.9119537865835059,2.258374989610137,0.3842756796024174
101,15:02:30,1.4480090279467137,0.4576810598373413,0.0008050812066954904,0.27489474144418347,2.38977071161423,2.4834673345078992,1.9159288700321149,0.7934447388972741,1.109348631462515,0.04099191150825164,0.06159539299665894,0.18285303980033496,0.8096450642984825,-2.1851532778495297,0.45448484059901695
102,15:02:31,0.3925044146080304,0.4181559085845947,0.0007230357507097551,0.28245651679573175,1.0098335733679042,2.2096784607232833,2.000289652362817,0.8906059194069899,1.0555046133386834,0.04828761712430805,0.0592812836005321,0.17994999688702537,0.8601196406446148,2.1006404146582063,0.386407919310849
103,15:02:31,1.3851244940740894,0.4578930139541626,0.0008019129745335363,0.29767977769179843,1.6440836262021283,2.420383453860824,1.8823030534543954,0.8568615568661496,0.992620079466059,0.04488167113358349,0.06135278946975914,0.1804033670042625,0.7175132171758052,-2.1282865796556307,0.4627837153850782
104,15:02:32,0.539461266785134,0.4988640546798706,0.0015434764992178884,0.30172511908574157,3.7129486942850787,2.2878892314288346,1.7607949518136594,0.9284846665704677,0.8456632272889555,0.052150722169953624,0.05887473766652796,0.17645556314361982,0.8898080541195709,1.2786966379562121,0.3846381193930072
105,15:02:32,1.2049679315767199,0.3770129680633545,0.0021309570927925845,0.24300310845319345,2.2120478051177854,2.493408935169792,1.8636347627538639,0.9109850228670867,0.6655066647915859,0.044425251790490665,0.0649147697799772,0.18760000039095653,0.8385085461897523,-1.251554080517094,0.4773661578765106
106,15:02:32,0.5520904651630314,0.4774249792098999,0.00236450027970676,0.20016557952528796,3.209243275052805,2.3814123389149766,1.5687506604018058,0.8763176209789397,0.6528774664136885,0.052087824759013884,0.06295337245677703,0.1765955164429979,0.8592908419190279,1.6697109205448577,0.38393568381974397
107,15:02:33,1.2488164028910562,0.3984020948410034,0.0027162742373604944,0.16599851517946443,1.871101386252117,2.6279615141878834,1.7818831235034516,0.8321954743262064,0.6967259377280248,0.044569536228595164,0.06764342798309994,0.1836964049232789,0.769414004103003,-1.772302217572963,0.46024368036828167
108,15:02:33,0.6182317863953036,0.49747395515441895,0.0033457293176056167,0.13061588826506734,3.807588033011331,2.4099982657669083,1.6062159947067323,0.852489553941693,0.6305846164957526,0.052147673624491075,0.06724204564209055,0.18767116987982355,0.8690047987172569,1.5618279288806458,0.3857738706813424
109,15:02:34,1.3698540897835916,0.3781449794769287,0.0033010141145027204,0.14676903217039697,2.749530991789922,2.632111594289772,1.8842679836294525,0.7858003360578178,0.751622303388288,0.040074568763717046,0.06984572897937673,0.19383801764198397,0.8185230274079189,-1.4769800262935018,0.4675773723119527
110,15:02:34,0.38106354169385803,0.4180799722671509,0.0026387670789674187,0.1975981490271812,0.5105616486116313,2.3041917138484163,2.0198005790916613,0.7867836356146939,0.9887905480897335,0.046397601034070785,0.06739038790172432,0.18978580115349353,0.8652125202893588,2.100543281416587,0.3781825998974749
111,15:02:35,1.27887836665213,0.45789003372192383,0.0022900116035387444,0.20079396936733734,3.7131773109591966,2.501038960573302,2.170097417246262,0.7598600995456343,0.8978148249582719,0.0451217367506682,0.06603604928106853,0.1855019406303872,0.732485881152426,-2.134422172951445,0.46414201917217124
112,15:02:35,0.7180413382842668,0.5177960395812988,0.0032548021715996358,0.18563037874025393,3.599398140565858,2.2877897711989834,2.002970354357803,0.9328868890957615,0.5608370283678632,0.05124416621122022,0.06308288977643707,0.18264403968854748,0.7794585604983514,1.5842271422708583,0.37941654871970176
113,15:02:35,1.5198231337255224,0.3780210018157959,0.003504711022483775,0.2332589705886159,2.3893043315902576,2.516272502503012,2.2006402626765564,0.8860846373180403,0.8017817954412556,0.046105660617397744,0.06321277984828277,0.18437490930350214,0.726794038625294,-1.575032101414812,0.4751840758263665
114,15:02:36,0.3774263337568052,0.49773097038269043,0.003265118723814453,0.2732781765602076,3.777322570471963,2.3407564853346816,1.9970853726869737,0.8673980477279624,1.1423967999687172,0.054548673481363316,0.061326569320918116,0.17942638861704974,0.831889453176394,1.4927331361583651,0.3755878108020676
115,15:02:36,1.1926991211670552,0.3782709836959839,0.0042951211022597136,0.21267790544281423,1.981525161156497,2.379645663784597,2.211404234600196,0.8752982313806942,0.8152727874102501,0.04731535408732304,0.05615596661483209,0.17188459765294942,0.7595623840922904,-1.555123440121847,0.47260700289372815
116,15:02:37,0.39230494345427086,0.41815102100372314,0.004373553538734143,0.25395883033883504,1.13203014444909,2.107409724373386,2.0272940291751405,0.8976386762373352,0.8003941777127843,0.049110792692207944,0.05216216597041094,0.16274468421644228,0.8688875082028568,2.2224534842942623,0.38259848490026505
117,15:02:37,1.3710750281752673,0.4577749967575073,0.0026991579364093357,0.299408616898423,1.187794250616124,2.3933267967657663,1.7181004244866405,0.9107756088630029,0.9787700847209964,0.04525873049257843,0.060266593271269035,0.1732369586400354,0.7954967091155909,-2.27898700307278,0.47547869818679706
118,15:02:38,0.4016121109192595,0.3978389501571655,0.0023023866217044995,0.24245085412002468,1.6406835796772024,2.2618434588166303,1.793217792493262,0.9478208595810568,0.9694629172560078,0.05192929394198629,0.061806876451718874,0.18015546261010923,0.8684102007805903,2.2634990568686852,0.3795201171543326
119,15:02:38,1.3807049334582797,0.45773303508758545,0.0012668718379700294,0.2583599763832106,2.4357841655341512,2.400594226933661,1.9482202465301215,0.9185620047715302,0.9790928225390202,0.04941181580378455,0.06345647130108092,0.18192769777677514,0.7206311292066767,-2.1778690412687913,0.4637883206104907
120,15:02:39,0.4614696966301709,0.5177429914474487,0.002111095165605548,0.27571639269796616,3.963529140988379,2.2033608808903007,1.7633010085802576,0.8817566539205995,0.9192352368281088,0.05421397151794277,0.060250253714290776,0.17919025526368534,0.8017729378281329,1.5068463960581455,0.36680106082172004
121,15:02:39,1.3946174441804313,0.3781139850616455,0.003066218540172372,0.27160520812378786,0.2384379339050351,2.3111814627894804,1.8238590930116005,0.7798335378204346,0.9331477475502604,0.04564940549249632,0.0617555684917779,0.1834701176434023,0.7421739884026077,-1.5427286113415448,0.46770514180022416
122,15:02:39,0.3652735865054687,0.437980055809021,0.0029868781535384416,0.2882720376303056,1.0898551544257165,2.0529779701998008,1.650569040742771,0.8462317546379354,1.0293438576749625,0.04764068730069001,0.05934257803424886,0.17298086045606215,0.7983308028761043,2.229766925279026,0.36933504803483824
123,15:02:40,1.2004537716414017,0.4378650188446045,0.00250591638903046,0.25648342022419596,1.9477061031099285,2.266070175249244,1.8536806161948463,0.8568832010329245,0.835180185135933,0.045395369376431,0.0604204066492657,0.17105334125001564,0.6820525177530743,-2.1062324092618074,0.45760348458150474
124,15:02:40,0.45551141951543006,0.4184459447860718,0.0025819136956542364,0.2332963862658874,0.8304660661477138,2.208574086112297,1.8667096884697345,0.9331786253189627,0.7449423521259716,0.045819631674992894,0.05878920529653127,0.17094615314766087,0.7920933242812026,2.043715687121958,0.40373781279055354
125,15:02:41,1.392479088921852,0.45785701274871826,0.0009123225292213988,0.26048571017586925,2.5883154915900324,2.4420777266066875,1.9441873863874393,0.8977056594989024,0.9369676694064218,0.03959657123304621,0.06502004206248488,0.18006901133487557,0.7156645491007102,-2.254839182557297,0.4698399734082533
126,15:02:41,0.5509281726626198,0.4973909854888916,0.0008987477201102933,0.22021023134264436,4.4365439736038494,2.337962605474959,1.9601250667964478,0.9711916485504829,0.8415509162592321,0.051505270928120316,0.06322155879279677,0.1749691495419574,0.7490164821533853,1.4564573349824423,0.37652329091713604
127,15:02:42,1.437875332131084,0.3734450340270996,0.002116580257056455,0.22095304929643828,0.630258130178151,2.3750346930361097,1.990006660081524,0.9773488923349808,0.8869471594684641,0.04541205654782635,0.06382855107965409,0.17723588298262338,0.6970834428895035,-1.4211075027397573,0.48707554307668566
128,15:02:42,0.40764251144476843,0.41793394088745117,0.0021874174160004143,0.2701550308286802,0.7321115233135713,2.0856412922124097,2.001154750087129,0.9876480332581137,1.0302328206863156,0.053576084793857795,0.061868681315472115,0.17822300630505375,0.8329585914260624,2.200384703073576,0.3979193903952446
129,15:02:42,1.5847806834362814,0.45797204971313477,0.002211959237183692,0.3030911966298778,2.1600331339547845,2.293148465797503,1.9794334740670279,0.8728378623718385,1.177138171991513,0.03979754688488709,0.06345959614320883,0.18365076071069647,0.7795405445603479,-2.2143251306376626,0.46716185062830123
130,15:02:43,0.42911792393239134,0.4185119867324829,0.002188368003470487,0.33565595168954243,1.3149328003302072,2.1160985260250706,1.8607597827830409,0.9428418166948938,1.15566275950389,0.04240855222647009,0.06038900040866503,0.18154739656373017,0.8611309053398257,2.2448599048697586,0.3896138619379335
131,15:02:43,1.4845854205398126,0.45750999450683594,0.0012234915006132498,0.3554131413786593,2.628435855766765,2.4574187857471346,1.8811222134325252,0.9406214956756751,1.0554674966074211,0.04114018979876607,0.06684202153754493,0.19025412109434828,0.7648706379299016,-2.227667987978971,0.4580533551590314
132,15:02:44,0.5456876529030683,0.49745500087738037,0.001097895421101214,0.3499708473262702,2.836016105372766,2.3773599716805327,1.7894861875114014,0.8732710266874929,0.9388977676367443,0.050094904130425506,0.06492627167188188,0.18385042449910005,0.8563420278048707,1.9032537779904435,0.3811782175329267
133,15:02:44,1.2044606802920685,0.3984600305557251,0.0014847662443500554,0.28463452265196004,1.179191470921993,2.477328059751784,1.9463585646158437,0.8307965741916556,0.6587730273890002,0.04245817586675607,0.05938738488584522,0.1759150997728449,0.7899202659677124,-1.8312708308801786,0.4619641546349912
134,15:02:45,0.4344850502957632,0.3978689908981323,0.0018469168132327239,0.24153527004903938,0.7018315215946199,2.174203715880359,2.0497240678455793,0.889742250513526,0.7699756299963054,0.046581796889893265,0.05684756600128732,0.17220455702241177,0.863120705803755,2.122767351949629,0.39099704064164376
135,15:02:45,1.9546418825386611,0.45720696449279785,0.0018474735782902485,0.40908368982413695,3.0104555493857372,2.3618056731548385,2.1437209508328303,0.9677293024349757,1.520156832242898,0.04312491106523389,0.06000219385346742,0.17815119163728907,0.771195587568498,-2.2504676607222973,0.483476630997278
136,15:02:46,0.5526858049174346,0.5181939601898193,0.0030636829434385502,0.41511613837652545,3.2114505034553877,2.1687453819265037,2.1146129610253688,0.9875344472676917,1.4019560776212265,0.04969095445748512,0.056718574662460726,0.17184943656178214,0.7821933529496072,1.6075590129780883,0.3701951689243763
137,15:02:46,1.451939038868366,0.35810208320617676,0.003908381495132574,0.40142992681901435,2.585853269628026,2.251533494650373,2.4127851217845455,0.9319432737062191,0.8992532339509314,0.04519704548208343,0.0568954983107788,0.1731477904773691,0.7089364297986656,-1.5776233111477442,0.4885040338793287
138,15:02:46,0.5207363093398484,0.4190319776535034,0.0037100926477179994,0.4659295984770513,0.532363865806816,2.1056973793393894,2.3217303406955048,0.860222653662121,0.9312027295285176,0.04474448315605013,0.05498536832593809,0.171962978659433,0.8348603908546572,2.1829844203282995,0.4071063871665482
139,15:02:47,1.4944680191920932,0.4567739963531494,0.0034553343245960376,0.39998838692773403,2.052163593585385,2.2826296119751754,1.9783183121795378,0.7961717630048043,0.9737317098522448,0.039538924430976556,0.056329066531209594,0.170970450866151,0.7627888330154703,-2.139305193763666,0.4593587218957647
140,15:02:47,0.4444691527102085,0.4181959629058838,0.0034603907847412076,0.2824376141353773,1.2778149629953515,2.095498288050673,1.9134502325567948,0.8310631870602152,1.0499988664818847,0.04774585020699833,0.05383607257927734,0.16650039343324177,0.8700337855891113,2.104022311095954,0.3888518753937122
141,15:02:48,1.0834343683897811,0.457705020904541,0.0016475739181373685,0.24850302787465342,0.9114851400441427,2.3154516307394926,1.7792649398419789,0.8372561612282416,0.6389652156795727,0.04541125423453775,0.0607946889051407,0.17648731928152472,0.7736482015709787,-2.196916165468683,0.44470456782739304
142,15:02:48,0.3800460612280574,0.39774298667907715,0.0006961255665316913,0.2355478773919188,1.3512725924732865,2.0511061589300708,1.7975300319282987,0.9326180008344763,0.7033883071617237,0.05253287600821038,0.0597917614407869,0.17408171162114844,0.8559183782389356,2.2923182694896633,0.3875771705304939
143,15:02:49,1.2637043806462915,0.45842599868774414,0.0007926329834788249,0.24791560463381573,2.942827824519379,2.2369549917471403,1.8586080608076812,0.8813590961699378,0.8836583194182341,0.053025579931163275,0.058101547530125024,0.16728116896100545,0.7236397769760636,-2.171645549722364,0.45631594856594027
144,15:02:49,0.44397525146203226,0.4179210662841797,0.0007253391021151855,0.17383143232307588,1.338440699427522,2.0934604797687073,2.15071081684948,0.8790370021902978,0.8197291291842592,0.06383037367848618,0.053402165682995606,0.16535307498269344,1.6725810429444052,2.200098381771826,0.39430333018093106
145,15:02:49,1.3024587199614863,0.4576609134674072,0.0008039480750142047,0.2015183853171359,2.408952521572427,2.322011772819943,2.3230885891090494,0.8435850505906187,0.858483468499454,0.05683913310155918,0.05653178080960087,0.17089507743820115,1.6947908691289524,-2.1565254960754006,0.45827471480532034
146,15:02:50,0.433165111587976,0.3978670835494995,0.0009272546537346215,0.22473205186053463,0.8602007474668112,2.1962329316558487,2.183633422857108,0.8689459707910382,0.8692936083735103,0.04872278527758163,0.05590861327263049,0.17198172838437,0.8590094523416051,2.1749647738026407,0.40452859059884844
147,15:02:50,1.1657831903698654,0.4783710241317749,0.001091356572889879,0.19710200168947964,2.3019486643799127,2.4208861857735524,1.967260292426664,0.7337426538200845,0.7326180787818894,0.03924661541193896,0.05760016284838321,0.173452666722779,0.7553127202248292,-2.199780899035172,0.4428916120105617
148,15:02:51,0.42906802011295175,0.3975878953933716,0.0013334453742245957,0.19374989105806073,1.0432028307404189,2.2112377491751705,1.9928089281338204,0.8097460939890643,0.7367151702569137,0.044685372187014974,0.0563339163318546,0.16910116206676354,0.8194878396631277,2.222376233909591,0.3953929573226514
149,15:02:51,1.5776019583241911,0.4577120542526245,0.0014121492606705033,0.27454112863900404,0.9025073756769333,2.3470907991184187,1.84716133599623,0.8489211368887495,1.1485339382112394,0.04727688637221656,0.054270172917646256,0.16124061339427287,0.7237773347248898,-2.1475163910657966,0.457117506470028
150,15:02:52,0.5509548800576044,0.47880804538726807,0.0017111694107654783,0.26693523946456543,3.849867975538308,2.1931463592801927,1.7382140814630729,0.8779758649446012,1.0266470782665866,0.06456853304665347,0.051390591948275235,0.1604896827462756,1.3726630080555395,1.6134960821345077,0.39177950788031995
151,15:02:52,1.4916324349460977,0.37795889377593994,0.002230428880608315,0.28029172575662425,1.2773226584000132,2.2684991421884635,1.88444123860674,0.8652528249373129,0.9406775548884933,0.05215057113600984,0.053205212859805895,0.16579001506283958,1.3721055940483362,-1.5877703006483017,0.4718819390637737
152,15:02:53,0.5190744380813334,0.4976980686187744,0.0026944157437299053,0.32423830401436304,3.679938539450601,2.1734241956073728,1.8676594621948404,0.9307938264261404,0.9725579968647643,0.055473046067273574,0.04980531364890611,0.15755970055720409,0.900913057091884,1.292272682594469,0.3901383832462065
153,15:02:53,1.196265691376325,0.37825095653533936,0.0031981417598927918,0.25606540369663405,1.4211354869208217,2.3758989777861617,1.961023209348583,0.8517899872536938,0.6771912532949916,0.04757821212982104,0.05734015111973428,0.17094343265534234,0.8400806879332122,-1.267523383922919,0.47373045872703545
154,15:02:53,0.326832882872388,0.4175419807434082,0.003126670740608972,0.24969370611269404,0.548155452182512,2.187647443745024,1.927062931099851,0.8262773699329531,0.869432808503937,0.046198575167885635,0.05753579119396136,0.1702142024471944,0.8791763381616703,2.1651279116678284,0.37758846152764347
155,15:02:54,1.3082172642706555,0.4380340576171875,0.002465176778368061,0.2636681384130558,2.7353442138005746,2.417709541039195,1.840674343599344,0.7737266344186748,0.9813843813982676,0.04193958276608334,0.058980271148465324,0.17044495077661864,0.7545660699824146,-2.139869791561232,0.46638892178797114
156,15:02:54,0.46327793000875794,0.4180029630661011,0.001906156165806294,0.20613885572711,0.6112143004469751,2.262849800449436,1.7051613940104102,0.8586522904126256,0.8449393342618976,0.04368776895899586,0.057163731713010354,0.17102129782478437,0.8832489778897464,2.0620451339459076,0.39483306401147156
157,15:02:55,1.3071287117118102,0.4578220844268799,0.0008725293913684595,0.23433642515300215,2.8974901042626207,2.4863322179817593,1.7153157597343687,0.8299657821014832,0.8438507817030523,0.038076591229593434,0.06153657037074034,0.1764828233516667,0.7737399448607899,-2.137742399352343,0.447712563612349
158,15:02:55,0.3779868020416657,0.41831791400909424,0.0003185502358817871,0.255362248670573,1.1856312064367451,2.2704170589857426,1.6962720135940366,0.8751283917867091,0.9291419096701445,0.046327141111392994,0.06033942944147807,0.17500012304495646,0.8738778404391742,2.065642297571363,0.390582306308416
159,15:02:56,1.3393093275690182,0.4381760358810425,0.0002757531712759942,0.2427745049509688,1.2170276027524578,2.314165931645647,1.913660196152304,0.953942742310087,0.9613225255273525,0.043316885147230345,0.056889048218045885,0.1681422781808444,0.7732190900058193,-2.0829436412209157,0.486887845713143
160,15:02:56,0.35018980041056585,0.43744003772735596,0.00027464656014046794,0.2591461061777561,0.8867418657919763,2.027024450049904,2.1657275933835463,1.008900468938982,0.9891195271584523,0.05532574699171155,0.05094329116118488,0.15996638715332534,0.8219222004651646,2.02338701971497,0.36339379378683234
161,15:02:56,1.4112254160362159,0.43820691108703613,0.00019517165612654706,0.2946365064702038,2.285320908680374,2.3313330727722863,2.2423996195039537,0.9308474269029342,1.06103561562565,0.05313673950557283,0.05674979516341679,0.16800217044872467,0.6988418638651909,-2.0385543965385176,0.4603609826191418
162,15:02:57,0.4620240299852226,0.47745800018310547,0.0004669705696144888,0.289600178023542,3.0219642108476976,2.226502970894622,1.8196536104055088,0.8959661550614647,0.9492013860509934,0.055728863813236926,0.05591172207581616,0.16051055158284028,0.7838777435477243,1.7743653336492229,0.3737389168430144
163,15:02:57,1.5084182512465545,0.37826108932495117,0.001260588310022115,0.31334619429268495,3.3348182621154034,2.454932757587043,1.9757902486846661,0.890881906729779,1.046394221261332,0.0498821115024853,0.05869774679724192,0.16728794792576893,0.7378291527225442,-1.7349944302917142,0.4854856470566158
164,15:02:58,0.41468497952191447,0.41781699657440186,0.0013000440740668752,0.3340456563378013,1.3477346760415843,2.2686179059325178,2.118811650680169,0.947097920181997,1.09373327172464,0.054824399388487655,0.05541305695302624,0.16319793923732726,0.8097854963095603,2.1155174591060413,0.38189221246030713
165,15:02:58,1.6524751169504723,0.4580719470977783,0.0014636158579691026,0.36126044476453173,1.545446958369199,2.5126738977579155,2.033493733712759,0.9284285922027694,1.2377901374285578,0.05316467443787062,0.05599476921586894,0.16124764216201196,0.6963887704971141,-2.058366066050012,0.4659226972931998
166,15:02:59,0.4458441788314156,0.4180530309677124,0.0015020858847762499,0.39248697402369437,0.5735338246317057,2.2861044328450792,1.8421984977636658,0.9566789684822884,1.2066309381190568,0.0580771487322675,0.054140319199896106,0.16259896946679528,0.826472209718224,2.013828375243177,0.3847027630425929
167,15:02:59,1.5786148494105992,0.4378700256347656,0.0008748026004738563,0.3991703543052138,3.4393762117854187,2.4851186937693877,2.1934085259504017,0.8519945931334436,1.1327706705791836,0.048709229960707555,0.05566687561626667,0.1678069012430702,0.7430580758671532,-2.0863956550663385,0.47452921492929107
168,15:02:59,0.6082944789154228,0.49780797958374023,0.0011177952538943714,0.38640602893028136,3.59232457759192,2.2094210667069363,2.050900076734659,0.7886447750460782,0.9703203704951764,0.05432522393361269,0.05225162694673556,0.15838526652356405,0.7638184077950132,1.3637826192023463,0.3746813752525092
169,15:03:00,1.4953082197120064,0.377998948097229,0.0019944735830748073,0.3361308727958393,0.7205782901178993,2.3064679877213954,2.0101004329686374,0.8070111089357032,0.8870137407965837,0.04663288657375976,0.05535396207746803,0.1636032499504751,0.6958173598259919,-1.3426225444844382,0.4634697732740206
170,15:03:00,0.4163358456036065,0.4180179834365845,0.0019125637209114644,0.3349490991473658,0.9430058080525081,2.0752979944092815,1.7210904633145014,0.8298570283860368,1.0789723741084,0.051941873258262855,0.05389771305033727,0.16105292160362653,0.8093301760595649,2.075330454399556,0.3700874009446118
171,15:03:01,1.4515715583593738,0.4582540988922119,0.0019966616332666833,0.30440295415110397,1.7961889812265723,2.394792869766075,1.8147727062503678,0.810071610426882,1.0352357127557674,0.04768988908246913,0.05515987128885469,0.16117039685395604,0.7262780660437061,-2.036842355768659,0.44969488974179483
172,15:03:01,0.41539741299382144,0.41766393184661865,0.002079529036554106,0.30248196776342107,1.2207922673001854,2.2560905768258825,2.076689824055759,0.927914618306738,1.0361741453655524,0.05525852662896486,0.05522564418292274,0.1643393058469251,0.842256313205908,1.9800551960046937,0.4030337618231915
173,15:03:02,1.3851379802811996,0.4576070308685303,0.0011191482365163095,0.3186598798599034,2.7676523779529347,2.5411863119250984,2.1339722897714797,0.929969256035582,0.9697405672873782,0.05077284010286766,0.06172689172582341,0.1740630100349839,0.7560931997964314,-2.057589395467018,0.4668380496194859
174,15:03:02,0.3826123237007647,0.41830694675445557,0.00047852815383038206,0.30893510804565755,0.627953153694737,2.233481709586053,1.8990391460205065,0.8851287332351689,1.0025256565804348,0.0510747907583569,0.06069984452270284,0.17242654850356337,0.8136389607696752,2.139547800949507,0.383902228340227
175,15:03:02,1.2070618016848966,0.4581789970397949,0.00048078501239530176,0.2782609519884724,2.2025055689011293,2.3742172039904745,2.1785677363494846,0.8236060942817813,0.8244494779841319,0.04847369250404301,0.05693633667501329,0.1677407868144394,0.7058654926637761,-2.126303372842365,0.46278178744299475
176,15:03:03,0.3727644040961534,0.4176499843597412,0.0004805768757265127,0.25037784269137364,0.573639914748972,2.1434803339859907,2.051166377918425,0.8780048002808778,0.8342973975887432,0.05549992020977407,0.054749088720584316,0.1670104014568035,0.8189897463679553,2.135664751042217,0.3884817922531017
177,15:03:03,1.420565412504146,0.4631659984588623,0.0005257008273929387,0.28298038043497226,2.9088078215395123,2.441195903472406,2.001102807533289,0.8214360818751522,1.0478010084079927,0.051088894732854793,0.05567752714964052,0.1671475267963509,0.7627583235620219,-2.0483235991004523,0.44902775631844927
178,15:03:04,0.5167570862253207,0.49740099906921387,0.0011334109636777611,0.24644011155792594,3.2073834554366716,2.29951847829733,1.767177514788063,0.874915827156369,0.9038083262788253,0.06401722152493243,0.053690350236246985,0.1625157765533491,0.8248215970572865,1.655055548792816,0.373859555227759
179,15:03:04,1.1821034774565256,0.3983790874481201,0.001537994156149125,0.215442472221379,1.1878764867971527,2.5783195419244422,1.8990507837605597,0.8507413026636288,0.6653463912312049,0.05262602886611309,0.060078958206587776,0.17390794871084572,0.7486018462312961,-1.7397699530388326,0.4678220504158982
180,15:03:05,0.545846442066248,0.4726269245147705,0.001660824329519528,0.21454149308280204,3.1687577360240184,2.3178305658180816,1.7068616473949325,0.8479179690080139,0.6362570353902776,0.06172491496687665,0.05912467444713703,0.16585277262861464,0.8052943008333445,1.728705395816832,0.36869293186113916
181,15:03:05,1.3208212060678672,0.3982890844345093,0.002047451572568093,0.18817591984995016,1.3410961705821034,2.4985826518015815,1.7401222398088425,0.8399779412057983,0.7749747640016192,0.05235698177106088,0.057311665599244915,0.16422254082641338,0.7278810505948953,-1.7244549575600379,0.4597643311449521
182,15:03:06,0.4500875707226868,0.4175689220428467,0.002071281764980881,0.1711170782545512,1.183472511871583,2.2265424099978337,1.620242036423723,0.8986794752718814,0.8707336353451804,0.056496449250263404,0.055470375636680294,0.1621560153269944,0.8332195950822558,2.106132036871177,0.37848464051766195
183,15:03:06,1.3719816949346972,0.43847203254699707,0.0009817909821691728,0.19494524932051488,3.2659367923165488,2.5350369837546562,1.8063429557642432,0.8424237078812423,0.9218941242120104,0.04841701218480392,0.05794385683322184,0.16752272778163474,0.7520770567599079,-2.0985643851839537,0.4658624713099168
184,15:03:06,0.6204419094855081,0.4973870515823364,0.0016211380245820806,0.19964333153002803,3.71404224402456,2.3472542391877163,1.888874589146312,0.8944155860896085,0.7515397854491891,0.05904522858195848,0.0533542397335859,0.1580315777938725,0.808807928861618,1.541986191223809,0.37567482801972113
185,15:03:07,1.4098422279106495,0.37836194038391113,0.0020900060303191024,0.2124343535769771,3.1996071799399655,2.6286773579764455,2.098176711491571,0.8682642569611119,0.7894003184251414,0.047700106710641024,0.06287921629675958,0.175411143926732,0.737957526242106,-1.5571554763782989,0.47277884717199564
186,15:03:07,0.5689993240255716,0.4973360300064087,0.0026789419650398824,0.21790102662314914,3.786900960574172,2.4227953174207095,1.7071258799373619,0.8224721086135621,0.8408429038850779,0.050217364063386116,0.060250630178282624,0.16794100709063112,0.8052289361626996,1.4122750057817302,0.38212213823657987
187,15:03:08,1.4757456320462083,0.3784639835357666,0.003537261122492907,0.2056342843330134,2.634528838250218,2.600367361373773,1.723550326950352,0.758885110640487,0.9067463080206367,0.03987273808642838,0.06351795788041491,0.17649493477817435,0.752833557636794,-1.4452001512754606,0.46976709842571884
188,15:03:08,0.511122627859023,0.517462968826294,0.004803651690200183,0.23221937259864306,4.172159711535974,2.355769422913205,1.4158151948188853,0.8331700978162278,0.9646230041871854,0.04677039739097989,0.05979871968550346,0.16974404982601582,0.7606860242200674,1.2250490339650373,0.36582465923077656
189,15:03:09,1.360524161102201,0.35822105407714844,0.005644335548663549,0.23193979389740457,3.0725644148787667,2.528904781479833,1.7496281054408342,0.7620960245539514,0.849401533243178,0.03806462975789961,0.06080625276495856,0.17190323153579437,0.6940786434409353,-1.2072845021867595,0.4843632793294422
190,15:03:09,0.670059088353484,0.4975600242614746,0.005648625402417906,0.21393266684204038,3.218877359114195,2.307867336578778,1.8766911963921367,0.9175770988043327,0.6904650727487169,0.05315794007377998,0.05751512687702485,0.16335272704669113,0.7907122138695412,1.685920345261438,0.3981623915257552
191,15:03:09,1.5462427881679242,0.37877798080444336,0.0056424604914980135,0.2347511496828136,3.1738966159176556,2.479777488340221,1.9494996127303137,0.9040812018858693,0.8761836998144401,0.04816099018387555,0.056828295501975025,0.1638687877000647,0.7378232098609507,-1.6598263663623738,0.46949298531523853
192,15:03:10,0.47477086983755107,0.4175410270690918,0.005017180876097882,0.25346093568664957,0.5828886942714541,2.2688908223980535,1.904918039154258,0.9155693957203677,1.0714719183303731,0.05418431238416759,0.05359984936857837,0.15908410512701338,0.8286619799438312,2.042003495474314,0.3929774590087459
193,15:03:10,1.126436596177565,0.45750999450683594,0.0032315064737076685,0.20568313147066072,1.1040458480419146,2.399997016407882,1.9939606848540248,0.8796974066069558,0.6516657263400141,0.05369961043249507,0.05188389975331097,0.15339529413296998,0.7076247205884001,-2.002267575654159,0.4572527123894761
194,15:03:11,0.38470637256243234,0.39861392974853516,0.0022712908342555236,0.2375970839365099,0.6743918197551505,2.1326431843432743,1.9932081469292613,0.9122660256135495,0.7417302236151327,0.056061300478036424,0.049213696751189306,0.14847485965951399,0.7924911269045486,2.0797523785545744,0.39832532354560685
195,15:03:11,1.2561864072506133,0.4776660203933716,0.0016784313016870555,0.256372756155825,1.7566985787879177,2.4750349607500084,1.8650406539084095,0.8788440019282144,0.8714800346881809,0.056724692285165274,0.05675117841959806,0.15760500378670408,0.7152290951818943,-2.1165171770535074,0.4556030810158791
196,15:03:12,0.4050367691870889,0.39799296855926514,0.0012983798401322133,0.1810007925100992,0.920622630663215,2.3434378722320934,1.8409655138244403,0.9567305386240361,0.8511496380635244,0.060391118234239004,0.05836979727032578,0.1666658241316449,0.8066286417272243,2.131758400037666,0.3956929629232327
197,15:03:12,1.4778188911741836,0.4778560400009155,0.0016543060954958833,0.25450549327551575,1.5607264367437435,2.4782178751740465,1.9087496535982145,0.8814278777718902,1.0727821219870948,0.047132967823571015,0.05560018884470078,0.16315844422418144,0.7129068688888809,-2.0870775931322085,0.4637162936352291
198,15:03:13,0.5811356700177717,0.49717795848846436,0.0022780727196220598,0.26042767442541515,3.705665460030842,2.199339023207426,1.7556297297469678,0.9791548937686329,0.896683221156412,0.06653842665827286,0.050963650493359186,0.14738029294506247,0.7749961259913215,1.701135994706676,0.37965957764245123
199,15:03:13,1.3224754588167151,0.398311972618103,0.0022858282222728123,0.23174937586983355,0.8118430741000225,2.4628296021749683,1.7057631497150199,0.9889094105440757,0.7413397887989435,0.059633492468418044,0.06119842851612345,0.16534789771359204,0.7262218417938867,-1.7461024194694144,0.4675946726332425
200,15:03:13,0.4378220615413404,0.3980400562286377,0.0024444971804342686,0.26435709108106253,0.8555373969279193,2.2195899478298453,1.6240583566155176,0.9315928899713629,0.8846533972753747,0.055439641858250774,0.062465303513398504,0.17130106065841683,0.8236299921540489,2.2762931939554165,0.3715381455773962
201,15:03:14,1.5277038341592357,0.4581420421600342,0.002088919881462914,0.26954708270507416,2.8143974253923734,2.2689344436625523,1.7709238231346258,0.7861750334651111,1.0898817726178953,0.044292732529284604,0.060673495002351654,0.17146582316451478,0.7357388643761101,-2.2645243293347783,0.46278011265754143
202,15:03:14,0.5311649011328253,0.4977070093154907,0.0024848555420746263,0.2554579783511909,3.726186583996671,2.079153481015655,1.7864741851886328,0.8922149591153503,0.9965389330264104,0.057315543656431225,0.054241367821977186,0.15661738854947682,0.7449541998384465,1.6470735085789516,0.38328640874228836
203,15:03:15,1.5141537760393757,0.37769389152526855,0.0025142173212444165,0.2901114498138207,2.204705512620205,2.193756469303278,1.8853881327688946,0.9713120249357395,0.9829888749065504,0.05123629822358066,0.050670728990663196,0.14927798967377431,0.6603530484198497,-1.6198373513027549,0.47831919173265725
204,15:03:15,0.4122635555697888,0.4186290502548218,0.002315717535533679,0.3393872770597469,2.4737891887762142,2.1830420820143295,1.8631526440208377,1.0400850467563811,1.101890220469587,0.0592256472634843,0.04674557395798683,0.14718175633870315,0.8060433733436057,2.1070625679966617,0.3888377324493003
205,15:03:16,1.6088866828434303,0.4377319812774658,0.0019956898067576387,0.35205016531985445,3.0688780853412174,2.5234169698779945,1.8997513725855302,0.913891614256708,1.1966231272736416,0.04778487353361783,0.056141907376113284,0.1641075838845811,0.7364149557869224,-2.0916280522209965,0.46530726645278075
206,15:03:16,0.532446763756385,0.49772799015045166,0.002708150305015522,0.34669246956679833,2.7935380603619304,2.316014550523363,1.6381463707293746,0.9023767896180112,1.0764399190870453,0.052615092500475684,0.0544788062712847,0.15830666495421558,0.7750227135961858,1.726031794118452,0.37598902374704996
207,15:03:17,1.2512326314390978,0.3981550931930542,0.0021114232595706994,0.31047625169165993,0.6307433221777935,2.4795493460177735,1.8493201540713182,0.8031745084646223,0.7187858676827128,0.04030563933536886,0.05432886909379248,0.16101985254425907,0.7033470567436199,-1.7580665101757358,0.44287307289641825
208,15:03:17,0.39742597233058913,0.3980799913406372,0.0017022816789477703,0.30842930491197806,0.6476325694450021,2.1487603218225684,1.8465241752440382,0.8412617785299372,0.8538066591085087,0.053781654151903086,0.05299453688239573,0.16167485636615866,0.8339324329586183,2.101128959299978,0.3695702900102815
209,15:03:17,1.1818423865737089,0.45784199237823486,0.0017855975319889692,0.26211757723846607,3.260384733095879,2.5169576789548747,1.9603243039063252,0.8153699864282679,0.7844164142431198,0.048851042218243615,0.06167150626822539,0.17566991018144523,0.7593547951343528,-2.0674074882405082,0.45207330383112876
210,15:03:18,0.4787328065158412,0.4977149963378906,0.002499928589242018,0.1703161696174882,2.749095639752191,2.330002093278107,1.7151505512154097,0.8469450934696743,0.7031095800578677,0.057214378265949634,0.058533599831763275,0.16621240988732564,0.7797875271090359,1.685410470475682,0.3684636971944377
211,15:03:18,1.2587270988183494,0.39814794063568115,0.0021020088192670984,0.1901518971523601,1.268455913825275,2.48238237595829,1.8551876692151839,0.8391128727231714,0.7799942923025083,0.04905403548345505,0.056696590620748236,0.1640079725297655,0.691687167934689,-1.7593157226406797,0.44802525329184195
212,15:03:19,0.5107542850010957,0.47776007652282715,0.0021023703750657316,0.1748058115549045,3.4158457451977418,2.268187819046328,1.7603787557815413,0.8273267067968768,0.7479728138172538,0.060696655991514414,0.05643720508515438,0.166926101889713,0.8200439229377361,1.776519425950453,0.37974821807005893
213,15:03:19,1.551262310552615,0.378167986869812,0.002657853671060195,0.22872689002702407,3.343847017363108,2.517920863669556,1.9673717466449123,0.8038596908160437,1.0405080255515196,0.04973505126194631,0.060634081143386545,0.177121716998525,0.763246701159177,-1.74803723494847,0.4632236280616844
214,15:03:20,0.6135145404752725,0.4978179931640625,0.003295586696940234,0.2405914525666175,3.533905346540523,2.3978809397922887,2.038693843540059,0.8582220657124408,0.9377477700773426,0.05191759613133023,0.056656804302537,0.1628056883525015,0.7733690898085768,1.6081243172025768,0.37979518859655437
215,15:03:20,1.3288435602039785,0.3781639337539673,0.0032972142293445474,0.21346395073584498,2.1809534528238657,2.5815472415386154,2.249001613484688,0.8556998049625082,0.715329019728706,0.047545850396635475,0.05815293808112022,0.16505696385527688,0.6981635868627001,-1.5558926704048026,0.45865232060105143
216,15:03:20,0.4126598151442092,0.3977850675582886,0.00330229604812331,0.26943983568841207,0.6645280995223123,2.3297073652757945,2.1666158967483207,0.8943922041910384,0.9161837450597694,0.05941916264057834,0.05600026946830401,0.16439484001463756,0.8714599390371975,2.3909181284940866,0.38430772889913356
217,15:03:21,1.206993486188819,0.45757293701171875,0.0028607406345813047,0.23666196045671598,0.6765123565069961,2.5506215801597123,1.86582419059341,0.8512605023952456,0.7943336710446098,0.04927431991557344,0.06219908012059294,0.17569425930925786,0.8296478074505468,-2.286906919832261,0.44144583227641737
218,15:03:21,0.44330314499612455,0.41835808753967285,0.002304960643893139,0.1893388629688223,1.0010883290719,2.22393757573531,1.8355805031257484,0.8738307301539733,0.7636903411926944,0.05487103648767696,0.059234171684016707,0.16662235127013997,0.9281477635763083,2.4746814255822405,0.371241276992817
219,15:03:22,1.380609167190951,0.4380999803543091,0.000991427592073535,0.2350920232096668,1.0858306731040681,2.5026647686928567,1.7452147111586174,0.9240556767519261,0.9373060221948265,0.04987781843909335,0.06781471239547111,0.17919785337546063,0.7941467555013162,-2.242773867620035,0.46810894478804016
220,15:03:22,0.47878499279052156,0.49735093116760254,0.0014588034001363328,0.22049724079714797,5.369133301906369,2.4570378888871622,1.81591112400403,1.0480517220212582,0.9018241744004295,0.06538230358397228,0.06507510802632427,0.1755631879004094,0.8737870038235506,1.6044330855365443,0.38835598296574253
221,15:03:23,1.361996752484856,0.36827898025512695,0.00228277221973201,0.22425873627617648,2.251443104047539,2.5251639705086837,1.8164852385942105,0.9365064640873119,0.8832117596943344,0.05301462689934336,0.06687436615766017,0.18034388630488304,0.8022604828648416,-1.4649293753788721,0.4811743812303039
222,15:03:23,0.8504126319861939,0.4880870580673218,0.0027991688262616774,0.20820838380419043,3.9573550703369587,2.36921239021007,1.7055783975270593,0.9944499665044813,0.5115841204986621,0.06044831651043277,0.0637442871936213,0.1780480025538301,0.8076363861324637,1.9271916567214689,0.40545471668772165
223,15:03:23,1.1900512320046237,0.39848804473876953,0.0031133632527158284,0.14808808434120924,2.3111278766906533,2.4017317901111386,1.8685018924437427,0.8484477688674587,0.3396386000184298,0.04845404361904216,0.05957004224096995,0.17414297369811266,0.720135487830895,-1.6725333325932885,0.44710793448462627
224,15:03:24,0.5882444268935487,0.501708984375,0.003923824116429842,0.143614267910799,3.486476478815204,2.1483785878309862,1.7836869544658855,0.8621765219094596,0.601806805111075,0.06953542735749121,0.0566188739520703,0.17157067347525592,1.9356693566711183,2.200283949526444,0.3759165473406517
225,15:03:24,1.4102744559391376,0.37411701679229736,0.0040917570852130325,0.12381209241815404,1.9825517258466265,2.40961540368114,1.9263799049490857,0.9026051794745757,0.8220300290455889,0.06026236933546682,0.06176301938667135,0.1823286673066078,1.9888244752775206,-1.7868096225246486,0.4767339994389956
226,15:03:25,0.41290886799332804,0.4991189241409302,0.0037305695579661347,0.17023876738385152,3.6014621418491473,2.3234732159555427,1.759554112656725,0.9148837166855591,0.9973655879458095,0.059313763602955746,0.06046279650742549,0.17493932954587116,0.937237352356279,1.881749781990611,0.36926480055431593
227,15:03:25,1.4802608867280695,0.3808150291442871,0.004112766877430829,0.23699437182836627,1.7097538407069148,2.5260773147944082,1.9830122659811582,0.8804958635670938,1.0673520187347414,0.04806247213152896,0.06440382233488676,0.1827635053630032,0.8508370952010142,-1.883378074878852,0.4764060465324338
228,15:03:26,0.45920275869655636,0.49767303466796875,0.004475409064563962,0.28034688952280273,3.684277347678987,2.4009282804932504,1.7985304372710185,0.9350808013910479,1.0210581280315132,0.0577649792548998,0.06091962873780347,0.17226335160290046,0.8667353695447744,1.8694644688604996,0.37989089127253556
229,15:03:26,1.4292415640603007,0.37887895107269287,0.0043593117611678165,0.3032493451161988,2.67730892835581,2.60657653046978,2.021293131237116,0.9599277921520617,0.9700388053637443,0.04791682885398285,0.06260148463148893,0.1772654306174503,0.7787988934146053,-1.7960137448221403,0.4781091705721098
230,15:03:27,0.4909976439358358,0.47691404819488525,0.0037998511603561267,0.3013252875085228,3.1712715113625114,2.4080859477422,1.870453352174025,0.9597862938691473,0.9382439201244649,0.05997731082700226,0.058473462795795454,0.17074590838731185,0.8560020423516981,1.7471027437775346,0.39249568435145127
231,15:03:27,1.394071095740565,0.3783299922943115,0.0035508234002421097,0.2772139198404081,2.6250186755560674,2.4930429289388982,1.8400853304269627,0.9548558442335182,0.9030734518047293,0.049468968013231994,0.0634111032446666,0.1805846637339928,0.7685869498767265,-1.771086112263398,0.48516716545735206
232,15:03:27,0.6647150803700503,0.4975680112838745,0.0038423562344249264,0.23509596422975143,3.6570266279036248,2.2945180728890677,1.4645462331921444,0.9579747753732476,0.7293560153705148,0.05254446524288811,0.05957243538591718,0.17009436618276988,0.7975301299996018,1.7265088029911926,0.39842545633576526
233,15:03:28,1.5836846193666942,0.3782320022583008,0.0036020519732076653,0.24709973747716513,2.7590150700328007,2.5100614213514993,1.4753391763794288,0.9250188372586806,0.9189695389966439,0.0458145536436464,0.06442812775175172,0.18038863114448653,0.7329038449255364,-1.742037811055594,0.4757788447554608
234,15:03:28,0.5743534190543749,0.4956589937210083,0.0038126278257337278,0.25789513444659257,4.712677966602198,2.373460225983547,1.5944122768445466,0.9583608868337046,1.0093312003123194,0.05791536406886115,0.061560163970643796,0.1718097200435121,0.8281358412947015,1.7019062734191213,0.38136281938176025
235,15:03:29,1.3519828126104225,0.36027097702026367,0.00469233761082961,0.21218859153331757,2.4066609324456185,2.508032094581231,1.8464761188897274,0.9506122108921022,0.7776293935560477,0.048197522115883656,0.06647148721338474,0.18101330888967437,0.7601803890457491,-1.6156064304167135,0.4905053599585561
236,15:03:29,0.5404888096150606,0.49773597717285156,0.004935949159683162,0.2382754422308802,3.9449767355543917,2.342428314574815,1.8535262013075728,0.9941197303240897,0.8114940029953619,0.06467373721628392,0.06286396093895993,0.17503262070862707,0.830268366138877,1.7433040557330841,0.3715817731013363
237,15:03:30,1.061187818789227,0.3739429712295532,0.00479842848148877,0.2145384662509483,2.4942970403666607,2.5632573754997856,2.074990541699466,1.0056468234872966,0.5206990091741663,0.05551611896517447,0.07274770039283773,0.19050574839248322,0.7445556857329269,-1.6168495680390187,0.4678358147114453
238,15:03:30,0.40943218934771,0.4421250820159912,0.004243231158459082,0.16073178246946881,0.9632592062684627,2.3484880163811352,1.9236847487852415,0.9575485904536081,0.651755629441517,0.060916278423534226,0.07063565751009365,0.18831460835594682,0.9162380880930383,2.525732262999653,0.37601231548523034
239,15:03:30,1.5418590402654577,0.43476200103759766,0.0031058764043450536,0.24484026678088378,3.892544772231324,2.605686140517036,2.1549632837989656,0.8844395991055833,1.1324268509177478,0.052447432744649275,0.0650442926710811,0.18188857451191082,0.8419688051878197,-2.2849795980495227,0.46385366074401074
240,15:03:31,0.6406018402422382,0.4976809024810791,0.0026570643620260626,0.21409427816937066,3.7172312269624834,2.51917637061229,2.185475131483897,0.9221652581818912,0.9012572000232195,0.05480208605578903,0.06174436381231525,0.1769692486604251,0.8229279463768696,1.6484652142244425,0.3999358519902668
241,15:03:31,1.509008118134234,0.3815031051635742,0.0025412126419126933,0.2572818100010834,2.1858322137685557,2.4789236076933228,2.3036365321327352,0.9530509809276985,0.8684062778919959,0.04872372480151714,0.05531919027516823,0.16632507960501677,0.7360468745580883,-1.7021741721531098,0.484850624954817
242,15:03:32,0.6918608601865468,0.49750494956970215,0.0023784166575239853,0.27924951895240274,3.161526166227047,2.10995361186009,1.96478305960181,0.8984749235022825,0.8171472579476873,0.058047603147666785,0.049820197910077454,0.15213844140156868,0.7569255615395211,1.7388031572524145,0.37767221901408554
243,15:03:32,1.2869192598289312,0.37594902515411377,0.003538501092438651,0.19232328400369328,3.1998642319820947,2.346563987501046,2.167071847063182,0.8415929880572158,0.5950583996423844,0.04882285668010079,0.053194195745194975,0.1578815965475537,0.6594634639662458,-1.633092496790506,0.4559881516334535
244,15:03:33,0.49151790071258084,0.5000410079956055,0.0043020568140576644,0.1987971872839093,3.5551159564185055,2.285263601153736,1.9037228190721198,0.8427347391227162,0.7954013591163503,0.05341225358740478,0.053427898837633374,0.1594600838953073,0.7212864021350223,1.2788279260173772,0.38800938577868804
245,15:03:33,1.2963167067293604,0.378262996673584,0.0043391992407919135,0.19188142521314436,3.2690809857325553,2.4936898564355827,1.9391070327601567,0.802210977686429,0.8047988060167796,0.04381248629050436,0.05984460433360881,0.17153128091717607,0.6570445766340461,-1.3951435437723205,0.48301810317735927
246,15:03:34,0.6371854548697036,0.4972529411315918,0.00440580300666511,0.14604339419197515,3.4910776899419558,2.240817915474601,1.7641979148809712,0.8440734525192479,0.6591312518596568,0.055622329449611645,0.058535264222720006,0.16516303423660209,0.6865035537274439,1.479935239491125,0.37340232431341297
247,15:03:34,1.2658112549662064,0.3783050775527954,0.00440444313530719,0.15771782692611339,2.310826746315188,2.4150213007236916,1.9712078839020861,0.8544144971626597,0.6286258000965028,0.051822312986014474,0.055912297837096475,0.1605492702744886,0.6156606132642604,-1.5222857650422048,0.4478867538167881
248,15:03:34,0.44253128321595714,0.41809797286987305,0.003705748343722348,0.17730173678894115,1.325241933877667,2.144350672810011,1.9836123318514531,0.8729444115567548,0.8232799717502493,0.059153841363339205,0.05351875007007892,0.16252675752103954,0.767937972391885,2.047718524682633,0.3655921876364646
249,15:03:35,1.3746110111736356,0.45767295360565186,0.0026740483635776966,0.1852860574781306,2.8726381975523028,2.415800249914456,2.0240739636915763,0.818720417286853,0.9320797279576785,0.04687230968684858,0.058647538625073097,0.1724576461797378,0.7215294304954648,-2.028428693603856,0.45099326189576006
250,15:03:35,0.4722374484964348,0.49792802333831787,0.002686650226074505,0.20036923731403694,3.580807905662031,2.2967437313107406,1.94197810865501,0.8128154546264632,0.9023735626772008,0.05467326185530074,0.05776625014356821,0.17104527891649587,0.7853091773173926,1.5398766636660302,0.36117887669367427
251,15:03:36,1.0437690393922763,0.3779259920120239,0.002706293364011003,0.19251070809639545,2.829041557321054,2.476026843021762,1.9772182781075012,0.8105767221250021,0.5715315908958415,0.046094088163132756,0.06124340278298349,0.17690275114185158,0.7200028582487108,-1.492560372610817,0.45482326748674945
252,15:03:36,0.3736426776415207,0.43802905082702637,0.001995836776042381,0.19734991227727033,1.3732565682774684,2.1668900586713127,1.730231483265172,0.8202236132706361,0.6701263617507556,0.05275604095250863,0.05971225608345351,0.17927574842372274,0.897532378072517,2.2837728209321364,0.3714024426092515
253,15:03:37,1.3891884825498761,0.43363189697265625,0.0018900565313700213,0.23513851328459084,0.7308432802116327,2.541714448138413,1.6687593918568453,0.7524815553900527,1.0155458049083554,0.041567701438322766,0.06254185539211951,0.1856676053808672,0.8649100945024237,-2.164079787745206,0.46298596772054496
254,15:03:37,0.44786210473682186,0.48233699798583984,0.0022168673035267263,0.2012094403226985,3.286169824270563,2.4295258681668774,1.4578966135410778,0.7857970133076351,0.9413263778130543,0.05413426118402365,0.05896398169728394,0.1692307914778318,0.8337569310647436,1.4380525420958676,0.36742867139377605
255,15:03:37,1.4475814805385658,0.37828707695007324,0.001971528434947345,0.2582841887273515,2.46406811723084,2.4355059282848397,1.7685016546513723,0.825501833950862,0.999719375801744,0.050359176774408564,0.05489259315620243,0.1598239844428992,0.6732575974082096,-1.5300631072001494,0.47567235314355527
256,15:03:38,0.6155289299021244,0.49725401401519775,0.0021872137072620037,0.2728305976722426,3.7443666495603565,2.1187650893187358,1.8205479268879332,0.8905914555700168,0.8320525506364415,0.057496849491241404,0.05004296129856278,0.15868297801664827,0.7792609007065817,1.3968976903242503,0.3874880657729805
257,15:03:38,1.6585915441504393,0.35657799243927,0.0038349352185534256,0.2939432643034753,2.967471897964354,2.406173702915974,2.0113725966702267,0.8429994670206242,1.0430626142483148,0.04897936898065956,0.0611430678233731,0.17901968722890507,0.727083077719859,-1.3242941070932597,0.47501282539727246
258,15:03:39,0.6298355120737548,0.519294023513794,0.005474471996232921,0.30392997615158707,4.138145478351621,2.2895174320391507,2.133768233692226,0.8600396351326125,1.0287560320766844,0.060651511195202616,0.060888527801832244,0.17782078768734597,0.8575076506778846,1.7651517463872661,0.38791029120758336
259,15:03:39,1.2654442697131403,0.3786759376525879,0.005779103196918811,0.22830978083254838,1.9451940677321304,2.407819646223298,2.146172307935142,0.8299656465837946,0.6356087576393855,0.05420529277615819,0.0701502088574649,0.19501196943944926,1.1374372465378366,-1.5412581825952216,0.48076956498861184
260,15:03:40,0.7252807024376702,0.4973280429840088,0.005772297294520001,0.21557387663929062,2.169822153517713,2.191985226767342,1.9912136558602187,0.9288376547040484,0.5401635672754701,0.051965083454266564,0.07733139958875494,0.2202685247718421,1.5237780819380085,2.1875547835578573,0.38048199315889425
261,15:03:40,0.40277639757082406,0.45783698558807373,0.005148302073986599,0.2632845122447661,5.546552733702878,2.5301199152222664,2.01743033988362,0.9409400428718863,0.3225043048668461,0.03143415788437748,0.16229934477475033,0.3272426554330169,1.8510095837008602,-1.8261909804655225,0.408155864932134
262,15:03:41,0.7517990227173831,0.5181009769439697,0.0034720641743774647,0.10029361170954032,1.657040310958708,2.7178921771388955,1.868616723624609,0.9659552863295444,0.349022625146559,0.049009653587330684,0.1657812260764559,0.3228975814904291,1.6536223677746316,1.9652494755616692,0.41614851057040797
263,15:03:41,0.8371212071892948,0.5567409992218018,0.004595953149998877,0.09591186254152072,4.969690587127258,2.0845043925235163,2.0572525827243417,0.9011055038479768,0.08532218447191176,0.05509225738047704,0.08104601340644568,0.20027971256623012,0.9400286058930387,-1.9286827059744516,0.3895765170112407
264,15:03:42,0.35625195582664726,0.43777501583099365,0.0022490986281795246,0.04805060433389052,0.8259798645144953,2.2878348884190696,2.1994252861815164,0.8224904484640245,0.4808692513626476,0.046041084191834086,0.07913110265563797,0.18650331360286315,0.658893994768453,2.00085255707702,0.35351205088720433
265,15:03:42,1.1184552146744102,0.45835602283477783,0.0024793681060586437,0.10071724441491531,2.2240654484574907,2.209513163884892,2.2102780847858563,0.8566485530043644,0.762203258847763,0.04018561255974325,0.07236101059820732,0.18415649572984238,0.6393395040534053,-2.209077862119707,0.4247861828267867
266,15:03:43,0.4575919315229684,0.5173569917678833,0.0023568458155054373,0.09335611710749642,3.044095201493469,1.9787456630521685,1.6725284120498087,0.8035040864334557,0.6608632831514418,0.0496434389040153,0.0711289664538061,0.18191177783049578,0.6390351407769642,1.2556409731003395,0.36887741556451004
267,15:03:43,0.9365314814579093,0.3981209993362427,0.004009990861959523,0.10457382384739071,1.37948575380195,2.0222523814120255,1.5538316710974251,0.7367380075431136,0.4789395499349409,0.045762495405005627,0.07019152367486893,0.17930238187731362,0.5930918439430842,-1.4934623293706561,0.4133278338173054
268,15:03:43,0.3289924125409604,0.43776094913482666,0.0018993458465502045,0.1318401848875779,1.4522574201490015,2.017403919107801,1.5138881582070103,0.7147259658085221,0.6075390689169489,0.034875933738066064,0.06846919899363761,0.1800433591967172,0.6484358580527907,1.865491949031906,0.3625783649219616
269,15:03:44,1.276948844290187,0.45826399326324463,0.001859357622220159,0.17095420236264552,1.3986439089883376,2.1732882269116858,1.6863829813586673,0.6945527784390072,0.9479564317492266,0.02788822828151491,0.06020017672781284,0.1714976570590776,0.6208793005290834,-2.0370431685440487,0.43285972779528853
270,15:03:44,0.4074465417278651,0.512160062789917,0.0025562772505310248,0.167275525753055,3.7280704010343517,2.1360433599732778,1.8029555091290208,0.7573933489538449,0.869502302562322,0.04325335901884076,0.058581478125957445,0.17470319983412663,0.703437894909257,1.4036079214501136,0.3529441626152598
271,15:03:45,1.2835489388239214,0.3984149694442749,0.002256092351103689,0.21124637623505785,0.7298299156899211,2.279385508323224,1.7119667413967998,0.7639354357827542,0.8761023970960563,0.03924974917293829,0.06348869220933481,0.1813700249185327,0.658920362875438,-1.474975468867573,0.4452670280026542
272,15:03:45,0.3970031826300869,0.41776299476623535,0.0019126874432615184,0.24522950541270877,1.1494822357971728,2.1083786403788793,1.5824983336732565,0.7275814288698134,0.8865457561938346,0.043884011184060205,0.06468583704422107,0.1842207750716531,0.787987060873256,2.2121517404456252,0.3798558895165852
273,15:03:46,1.4166661907555909,0.4581080675125122,0.0019231377497746394,0.25897440622219176,2.6319333944881484,2.335829103057329,1.8080334859676335,0.7410691711322439,1.019663008125504,0.04034590728646276,0.06065349315746679,0.1783226273110166,0.7374983119495114,-2.1256947815037943,0.45604061891817554
274,15:03:46,0.4418214276074697,0.49761688709259033,0.002416291160481876,0.26458014139475416,3.4045637122198795,2.2286045225814317,1.795425240599246,0.7588817229861793,0.9748447631481212,0.04227298141414683,0.057648589862658466,0.17060696220209234,0.7719987433843963,1.4854112902479297,0.36300971797244047
275,15:03:47,1.233794632694742,0.3785130977630615,0.0022900829549186595,0.24337957036945065,2.780397460515965,2.4416743770549543,1.789519239229661,0.7879297015047547,0.7919732050872723,0.038764123861574955,0.062187285370823894,0.1784079296514929,0.6954507891953812,-1.510584004903886,0.4636472064609154
276,15:03:47,0.32993166682448943,0.4176039695739746,0.00205988562818078,0.2683952613030449,1.4078117417590714,2.215819223633353,1.8952634118343388,0.7776718391060293,0.9038629658702526,0.04054926547816959,0.060712328343345744,0.1717916546342553,0.7399721608376818,1.8990536991304188,0.3570665950351436
277,15:03:47,1.7688696070669816,0.4576519727706909,0.0020558485170980136,0.39317085614208525,2.2897496222776157,2.458607012743698,1.982201325584691,0.770609578546648,1.4389379402424922,0.04287205235239269,0.06362548007115693,0.1716080211632014,0.6406932278929933,-1.983514936796828,0.45905746064973774
278,15:03:48,0.5453941540805034,0.5178860425949097,0.0032550084044274284,0.38012762139959994,3.2537705206844403,2.2578504919236124,1.8756301586787871,0.7864273439812922,1.2234754529864782,0.052286829605112564,0.06245635385390877,0.170944321114996,0.7601483293175906,1.548514093380403,0.3615909792394324
279,15:03:48,1.2551866945966579,0.3781309127807617,0.0034958859506886595,0.340762872171916,1.7867791997760831,2.4600327476750654,1.8840292832862677,0.7413288247860299,0.7097925405161545,0.040676445562809485,0.06134437170844076,0.17078269746366392,0.7087438089253502,-1.6003887661432357,0.45704656195027554
280,15:03:49,0.4299525099732457,0.5174530744552612,0.0037829282552124255,0.3867336254758864,4.066614695360457,2.2861038471432615,1.5140811144245463,0.8300480671664422,0.8252341846234121,0.046941391973212857,0.06013725305746098,0.17213146107078742,0.7450446854961217,1.2788278624013856,0.362360364922254
281,15:03:49,1.130835193663125,0.3785289525985718,0.004872559166969381,0.3004066975173972,1.0932932398826223,2.4192754181796143,1.8182828021782804,0.8017419789333949,0.7008826836898792,0.04677513696789375,0.06378919720694608,0.1784670865978635,0.6797555358003156,-1.4056806258048908,0.4562847332169036
282,15:03:50,0.47187436357684454,0.497420072555542,0.005342399812259657,0.1551277455533459,3.9851619215897407,2.2325519384842956,1.977840587171394,0.8627265118665056,0.6589608300862804,0.05926383372883062,0.06328811197422121,0.17427228957823063,0.7802123484058241,1.8387735065448885,0.3769998748194633
283,15:03:50,1.3007619640138204,0.37855494022369385,0.005044942493221072,0.18567961443729744,1.1351360036290816,2.3585722355397496,2.072358362063096,0.9192915503938636,0.8288876004369758,0.05568626618358345,0.06108334299645945,0.17206150824750924,0.7276942145974231,-1.6530603413844158,0.4734885532389168
284,15:03:51,0.39749443661452355,0.47747206687927246,0.0044414342481317705,0.1880864506222027,1.58252122977202,2.144909861374964,1.806708341043526,0.9036905717358124,0.9032675273992968,0.06127502336425203,0.05904488084275618,0.17133450486573326,0.779409487204311,2.0372382711835453,0.3676330452267962
285,15:03:51,1.4055997539001446,0.41812098026275635,0.003059008860201118,0.22419891817949975,1.9779801033697535,2.330064564778734,1.8787524486158667,0.834471530190052,1.008105317285621,0.04444443663115155,0.06456948079085001,0.18372928086116233,0.6996125132727641,-2.091820857718999,0.4589138857727267
286,15:03:52,0.4346673151152428,0.5173360109329224,0.003338869807048184,0.25515927900480595,3.9058274757121967,2.2579132019337185,1.7344708285005264,0.8286590346113075,0.9709324387849018,0.05140886569779827,0.0654850535402471,0.1820015642430653,0.8139665560419536,1.6581350130674846,0.37862709242112835
287,15:03:52,1.5709590293598803,0.35843098163604736,0.00444775104216717,0.31529496189018213,1.5460641986116623,2.355834449092908,1.954470015911051,0.8178992330286121,1.1362917142446376,0.05041481592289816,0.06552331252771854,0.18404643373597332,0.7638259375252974,-1.5304831595074173,0.47846542083806765
288,15:03:52,0.3779620885783942,0.5174720287322998,0.004735224650964653,0.3569383760913652,4.873017282703379,2.2860169253736884,1.8350916999181746,0.8715539901882288,1.192996940781486,0.05016166796852124,0.06295307110550025,0.17452664286414452,0.7533199754418164,1.2940351508637953,0.36553631569377537
289,15:03:53,1.482919184946918,0.3585169315338135,0.006393245174795937,0.353860009059366,0.7404932284368286,2.337965496186755,2.097448962104761,0.9011690533670949,1.104957096368524,0.04533361160028268,0.0626905410043667,0.1735232278952961,0.6670279119818621,-1.2975928113990385,0.4917479346482699
290,15:03:53,0.34935919585302155,0.4976539611816406,0.007027870086436394,0.3915244613849737,4.424393657238259,2.291247593827142,2.0894926111219254,0.949269288045652,1.1335599890938965,0.05526547475749427,0.058312873997854495,0.16923221957390297,0.7487611924267552,1.5483502404171965,0.3724469044481018
291,15:03:54,1.362308567174349,0.358085036277771,0.006728984810133909,0.3741545891289224,2.8972662672806266,2.519161417348526,2.1152394125228313,0.9331046239753995,1.0129493713213273,0.04567790136368369,0.0658104015554822,0.1840988300828936,0.694206361881965,-1.5131184967662747,0.4897130269239323
292,15:03:54,0.4047118034830269,0.41801702976226807,0.005663395982016084,0.32997800383801085,0.662499943816644,2.3545014091341674,2.0592524340271074,0.9175852557217676,0.9575967636913221,0.047474874442818345,0.06377918446482336,0.18238665216435163,0.7845507302333826,2.0724174493089267,0.3995725022123797
293,15:03:54,1.3395289254212355,0.4578670263290405,0.0037655420007709495,0.3141778526364166,2.459631977735845,2.5023537190867793,2.188635333893126,0.8760590445673818,0.9348171219382087,0.0413016536406707,0.06659096440180132,0.18677066376034215,0.7151388299844542,-2.0956188520787986,0.4672477718776454
294,15:03:55,0.4903471004043256,0.5177149772644043,0.004097322891531974,0.26547987617717894,3.7948673994291187,2.240291247853851,1.9130999275062874,0.9574834662177257,0.8491818250169099,0.059019805270412416,0.06224682407744768,0.17569651677270662,1.516839979546193,1.8337222010178031,0.39171219981071886
295,15:03:55,1.4798340416260456,0.39865195751190186,0.003692129790198351,0.272431174875261,0.8524117110871094,2.5283842667225818,1.8647367757188558,1.0322880835207653,0.98948694122172,0.05643331447741334,0.08175531927788475,0.2051067893443251,1.552188732636755,-1.7585055835081125,0.4810080369332891
296,15:03:56,0.5087375710331036,0.5172380208969116,0.0030299757629393296,0.27006930931831824,4.617067500780156,2.344843230466779,1.8062955240866303,1.0433277084616457,0.971096470592942,0.07268033482706002,0.08501942834416895,0.21764920272133223,2.134856619595114,2.244655878236962,0.37608801474661774
297,15:03:56,1.3929729791255672,0.3783149719238281,0.00421630492795515,0.2480233694235748,1.9394388897356094,2.299040192039754,2.0537914402524353,0.9394386151768014,0.8842354080924636,0.06346634993952065,0.06201190228953545,0.18546025401374636,2.1826278099631424,-1.7940218985844831,0.48064826725345844
298,15:03:57,0.5055288577375419,0.49737608432769775,0.0046057310694706645,0.2631834995515848,3.422865467898708,2.178310965001893,1.6643073120971121,0.9021196604259717,0.8874441213880253,0.07713834497544829,0.05635919023995481,0.16945540186826188,2.129078803496485,2.138840038358266,0.3671849047659193
299,15:03:57,1.4256933483528111,0.3979259729385376,0.004130158351617297,0.25803979183300674,2.710532503919799,2.3539036669185136,1.82168266813702,1.0013614264522213,0.9201644906152693,0.07116040032788737,0.06046110359697468,0.17540760532852917,2.4352333729000084,-1.90082115326664,0.47120172530090854
300,15:03:58,0.36802728936263673,0.5376930236816406,0.005267999697228731,0.2732949027619997,4.5368725756509445,2.35161568822358,1.8123588152617194,1.2059130598993175,1.0576660589901743,0.07361268974747111,0.06257116470548355,0.18484699791052805,2.3850387694550936,1.7554982139182522,0.3751812212172305
301,15:03:58,1.5529602249740153,0.3580780029296875,0.006233750937308002,0.318318976461666,2.380639922831665,2.2574092703216255,2.010564823841976,1.1520083538588737,1.1849329356113785,0.06267470532137938,0.05420150720394161,0.17319783306244796,2.4375070151417573,-1.3981925845769891,0.49931855669797015
302,15:03:59,0.38783050989918233,0.5178589820861816,0.006251540344617013,0.34752869226539457,2.9952699597113766,2.0051372360284447,2.125833440389753,1.1534672913032422,1.165129715074833,0.05208531183162109,0.054889073036669234,0.17178748228079635,1.8103104538690156,1.0732938597929476,0.3611792991101692
303,15:03:59,0.6435846795576277,0.41780197620391846,0.006101939911864918,0.3276999513526504,3.0866613201901023,1.795993180072791,2.1394157792921846,1.4310022639360758,0.25575416965844533,0.18371496011003297,0.06413217494362941,0.18486158672951425,2.707713709381806,-1.6766629147924377,0.4233294825142339
304,15:04:00,0.15758453210108808,1.0598230361938477,0.07785595229766784,0.3005430133772556,1.681319803044837,1.446996265316265,2.182944319121338,3.6364919205741173,0.4860001474565396,0.24093015857480596,0.6477536551398642,0.7485770296200948,0.5308701258591044,0.6097938611790603,0.3105657881442819
305,15:04:01,0.23326908771382443,0.5372909307479858,0.077864138672102,0.32128724882947296,0.7190306425257567,1.0394146902263375,1.2528917547403904,1.4091930128496688,0.07568455561273635,0.10025569838094181,0.08298931330432924,0.100230477671022,0.11387369916423776,-0.10851543894189142,0.24711137200663735
306,15:04:01,0.5377175271572646,0.7169129848480225,0.06412818855453821,0.04117298685619297,2.351140180698672,1.8106135941878814,2.4400837288357273,3.345239698597573,0.3044484394434402,0.2375629014345202,0.46672042430924704,0.517839600875566,0.43051680451728397,-1.8515612593110617,0.326367438143306
307,15:04:02,0.4810764353232446,0.5772520303726196,0.06091142005987109,0.04271768080356469,5.356553717664072,2.0054658743369935,2.6936368656193466,3.91042112393611,0.056641091834019996,0.18709845492130542,0.4140288845036646,0.46435421209783395,0.5184996595640426,1.4462749390067413,0.322665741018389
308,15:04:02,0.2853245643951906,0.4181070327758789,0.06087421960173315,0.02666150477792777,2.0808604870486684,1.4553834743820915,1.7572879447933398,2.3311343231685515,0.19575187092805402,0.36399099745502894,0.15863458801807123,0.31887358216915096,1.484244188432743,3.080755974796538,0.3921104135200006
309,15:04:03,1.6679675292109886,0.4580429792404175,0.013564133905511255,0.3459136522225293,2.4190250554140813,1.8625072429480551,1.7293138907217713,1.9885521894961335,1.382642964815798,0.22273457982918168,0.0755231214800188,0.19285614838739631,2.2933127980414145,-2.20073716467531,0.4786784499274993
310,15:04:03,0.5583019710812154,0.51727294921875,0.013686618464181776,0.3007684069060081,3.9045767990620366,2.0915860299972966,1.8633488430745344,1.0098927847625776,1.1096655581297732,0.06448309531894482,0.0510676865251032,0.15422823948032846,1.362309866400614,1.458686319037265,0.3834911444938824
311,15:04:04,1.3663351126135392,0.3983430862426758,0.005408988992964226,0.3683367667172101,1.6952742267566316,2.14274828192328,1.8604307124962463,0.8977110775178636,0.8080331415323239,0.05025533527065592,0.06571582970822536,0.18318768208192238,1.3768845669401615,-1.6166870213677333,0.46223050500477847
312,15:04:04,0.3329050978422826,0.477666974067688,0.0022414675744315106,0.4016748155121347,1.436980239148197,2.067856808235382,1.2371511776137047,0.8572917749199886,1.0334300147712567,0.05190382507088174,0.06857346094105418,0.1944510502519742,1.3527123494632833,2.088804991518473,0.34201995244194516
313,15:04:05,1.3487947301104173,0.43825793266296387,0.001962184045699189,0.3317759926368069,1.2852123575722465,2.1330419543607744,1.237550128565765,0.8578533231439583,1.0158896322681348,0.03855189896667632,0.06706098503952823,0.1917883979157328,1.328214522836776,-1.871218117138777,0.43534787597397906
314,15:04:05,0.5381949082464266,0.5170750617980957,0.002662866175387535,0.24071767926415966,3.575206255179879,2.13343719623697,1.168995947866956,0.8202018233187103,0.8105998218639907,0.05448662754853798,0.0658943928358734,0.18196268877162447,0.7185183489962262,1.2517688456050884,0.38593632714446846
315,15:04:06,1.0753754356070606,0.41830503940582275,0.0022688460032711075,0.22422949733178438,1.0431948351013602,2.005405584299639,1.4112875491897654,0.9115413365872443,0.537180527360634,0.050134413691763746,0.04941069023684639,0.15057816173718783,0.6627066076587657,-1.4318175749881812,0.4306540835069406
316,15:04:06,1.8019915835091984,0.597356915473938,0.0050569301543035294,0.35672932537756985,3.7677172410123916,2.1032129746645785,2.019733656278989,1.2479879219505172,0.7266161479021378,0.06294807826518951,0.04695845313328284,0.14160246582255578,0.7479153097451404,0.09201683366748714,0.4162042104104666
317,15:04:06,1.2817187896137336,0.29814207553863525,0.012585788800772945,0.21107609276417827,5.306077110096258,2.4858075872606706,2.018019337097651,1.186334527221477,0.5202727938954648,0.07496986502057473,0.05511419710355533,0.15450753177968263,1.345956211981607,-0.19760444487181905,0.48102551161987267
318,15:04:07,1.4358048016204057,0.5180399417877197,0.013237740705700673,0.2186626605320333,3.2162416994381196,2.6084002296856146,1.8734657048450492,1.3382934886481739,0.15408601200667205,0.08458239649614498,0.05657111921665135,0.1559263480228999,2.0537888813092406,0.29574682988331613,0.4521800053178658
319,15:04:07,1.4369314929386146,0.29830408096313477,0.01763691199646615,0.07085304387204573,2.5163529964134916,2.478941868153733,1.8947058230629914,1.0593530286148096,0.0011266913182088611,0.06178769241822708,0.057683978162276266,0.16131132284311783,1.8659669529509382,-0.2079322985854244,0.49125471602093795
320,15:04:08,0.6039336456714165,0.49410390853881836,0.01849324882702348,0.1933255359122425,3.3801190785680055,2.177399039567923,1.6951895559752423,1.125377663144133,0.832997847267198,0.06272416461625557,0.05005686101068749,0.1553310949377712,1.1802653771610894,1.7832638865477395,0.3912606697851605
321,15:04:08,1.4487746522421119,0.4018549919128418,0.010871922894779118,0.13175474759364,0.9721631166484329,2.4181406366916214,1.6454222703003014,1.024879094745859,0.8448410065706954,0.043465031815003115,0.05951509802338719,0.17388544965068267,1.1493504236624554,-1.7663579946774153,0.46656551304763016
322,15:04:09,0.5464008524896091,0.5174940824508667,0.009094500263199735,0.2250816904997443,4.0693415682300875,2.2829387295384107,1.4698574353621425,0.8620961822278487,0.9023737997525028,0.04964711937357434,0.060203462596066536,0.17643392416030945,0.8348103206488983,1.419679331753767,0.35315373971288583
323,15:04:09,1.398914039903861,0.378275990486145,0.007964162092794424,0.2190559644017111,1.1663798996372579,2.3443173221096556,1.350071591928629,0.8031351486109808,0.852513187414252,0.04220357796350486,0.05633398902839187,0.170384787899868,0.7807841490487832,-1.4085690111772937,0.46157409754723955
324,15:04:10,0.4886122747639827,0.4976710081100464,0.003981233641137294,0.23299015493955674,3.373135005634356,2.1076316413194074,1.269733101485496,0.8315119658859507,0.9103017651398784,0.05148013371223817,0.05516500153670476,0.1628402361881655,0.8151419050307962,1.642425042714224,0.3762107311100791
325,15:04:10,1.3341016184838101,0.3937159776687622,0.004178559175161922,0.23250595930239018,1.4871285968008978,2.1974932356614816,1.451748873964507,0.8308816016898002,0.8454893437198274,0.04620803500165759,0.05538518051323859,0.16243933879273137,0.7233830639883755,-1.7340607969311548,0.45625253367231666
326,15:04:10,0.5087032998592469,0.49898695945739746,0.004319661269394715,0.2186937617976118,4.014131378611158,2.101930890494131,1.3086961465763278,0.8725844050676632,0.8253983186245633,0.061283771905752675,0.05546142060679903,0.16054667774961984,0.8164960366003283,1.6476122975166274,0.36885369808028423
327,15:04:11,1.2631606821399033,0.3812919855117798,0.003925734837821437,0.2107228073469601,0.604454573928738,2.27288785125517,1.2687394628056523,0.8499708084893584,0.7544573822806564,0.05269576872693372,0.06348801040392833,0.1751903833301656,0.7499947208907956,-1.6366274192284354,0.4684029406480612
328,15:04:11,0.39148272257511907,0.4974679946899414,0.0036852296837892595,0.2121114859639752,3.523876964826665,2.1855394739244285,1.1683627953577804,0.9184566478911562,0.8716779595647842,0.06551325251840256,0.06272947069970938,0.16948873381514812,1.33386807148234,1.8087624794453239,0.3844111431106133
329,15:04:12,1.581938431434995,0.3788430690765381,0.0039042861726372277,0.28248376180371415,2.2064307729647075,2.2181623821386856,1.5105967174367187,1.1311518801816995,1.1904557088598757,0.05945614028299812,0.05641426406887016,0.15897149737170108,1.3263736134462834,-1.7521199547217987,0.4956685158412114
330,15:04:12,0.5028902434749767,0.49734997749328613,0.004168987115110667,0.2884104162821947,4.308800598784306,2.1455369037673493,1.8501187496806284,1.2517160627366772,1.0790481879600182,0.07346707089815147,0.05243355321145455,0.1582034383033358,1.7987270374985451,1.548265966435883,0.3875862574567072
331,15:04:13,1.6310052104478434,0.37554895877838135,0.004241583352334999,0.34900854017067584,0.4706867116631402,2.316888454780729,1.8139922985386439,1.1839082889988273,1.1281149669728667,0.06025990979553123,0.05841607983572379,0.17091240692715318,1.8496067250082995,-1.4924190529817785,0.47812206721631634
332,15:04:13,0.47516232670007846,0.49977803230285645,0.004394786232541037,0.3987052789650363,3.6772300018695225,2.285902747736265,1.4982278490647898,0.9645093856027727,1.155842883747765,0.06199366514937305,0.05734884854809454,0.1661813859640523,0.8076537940021892,1.4243872857008162,0.36383732972420835
333,15:04:13,1.1563135480476177,0.3787870407104492,0.004383036424673037,0.31492542958772946,0.9111213167764992,2.313007899757751,1.6824495787743867,0.9203433317592287,0.6811512213475392,0.05152776484916348,0.05670734343380704,0.16639352270287824,0.7254780800909569,-1.4868094004799866,0.47354003090885055
334,15:04:14,0.33920307236965075,0.4385489225387573,0.0036863883709159495,0.30536734329349974,2.0775446455498194,2.0365594219798537,1.867815976894538,1.0458482473834398,0.8171104756779669,0.05873075674491858,0.055044218876289734,0.164605876300472,1.340335207976128,2.143756690943398,0.37078276109294117
335,15:04:14,1.2380428644949077,0.45739805698394775,0.002820098434990826,0.2965588959103856,2.1072132697049426,2.2710996839303323,1.7637927718124733,1.0463250284345562,0.898839792125257,0.052318334085415905,0.06128865525176325,0.17668868743043692,1.3530491376647646,-2.315522614482895,0.46562627378572813
336,15:04:15,0.4672276056782693,0.41780292987823486,0.002026533891633164,0.1816074821393523,1.7118273376907684,2.0994292446857576,1.7201590559184148,1.0833691864121848,0.7708152588166384,0.06360646892907765,0.06041229704903731,0.16741645467403463,1.3473520438350024,2.2449569808365495,0.3934252326283242
337,15:04:15,1.0619429208137938,0.4576770067214966,0.0010903202168435653,0.174180213144835,4.374423558665165,2.460884696419168,1.8625682017495169,1.1488411751717358,0.5947153151355244,0.06539539440114828,0.09530961086532033,0.21795040138533667,1.7003867735261209,-2.386547629500723,0.4574855421096308
338,15:04:16,0.6384279386088938,0.4953070878982544,0.0008195432536240333,0.14916289375401415,2.920045945101431,2.45739231140765,1.6971703297489502,1.2425016235925825,0.4235149822049,0.07810776899899027,0.09814336472416017,0.22580513877693795,2.11802241471646,2.049082921885203,0.36917967358801707
339,15:04:16,0.8152742012232294,0.40071892738342285,0.0013856667918588528,0.09695280230393641,1.0308713921777872,2.256008438679202,1.5366696192085638,1.1141525505171155,0.17684626261433556,0.06595115765885776,0.07249842399332311,0.19198544107784873,2.1632058584415637,-1.8433666231190426,0.4151688558180613
340,15:04:17,0.31149907689668477,0.4377020597457886,0.001348846540025761,0.08618532423800465,1.4213328007352852,1.9585857890651486,1.2210248178553158,0.8404570610150653,0.5037751243265446,0.05697008751197814,0.06427678226211661,0.17722050817757096,1.350225031656649,2.3799307155756972,0.35974193233614943
341,15:04:17,1.4047091685652728,0.45791900157928467,0.00118853782802546,0.1721270163296762,1.3822229107901638,2.059431162966123,1.4389146164624085,0.9050872238860136,1.093210091668588,0.051346677026082074,0.05305216971208872,0.156806252536604,1.341561660156576,-2.221676387106977,0.44839439740979103
342,15:04:18,0.3581347953545219,0.5175009965896606,0.002137997970149286,0.1953354378598655,3.74704796185564,2.0654732787588643,1.7785662583753077,1.0411579853117225,1.0465743732107509,0.06016922033674869,0.049962868666324954,0.15544940052038367,1.1121149927934233,1.2419386468939204,0.3621658809086837
343,15:04:18,1.5305014418890734,0.3784329891204834,0.00291358420492287,0.32452922640097437,1.239606350420918,2.2451194746077863,1.8484603053769428,1.025235485425407,1.1723666465345515,0.053693750340512485,0.055470707647213874,0.16483820025278043,1.0889188001574155,-1.2404879583843202,0.47474616662220587
344,15:04:18,0.5561777933614647,0.49772095680236816,0.0029652350824946436,0.34686179496755604,3.240840009017211,2.1158343414551015,1.4079229274202165,1.0194224389119442,0.9743236485276088,0.06020964712096157,0.055336314221455137,0.15936234162988097,0.7852912808889819,1.6147651693095393,0.37019224026005343
345,15:04:19,1.083868801972172,0.39780402183532715,0.003685641160565467,0.265084258462287,0.4654710302851946,2.3076288768976325,1.4151297548385475,0.945970065328392,0.5276910086107074,0.049346207648014354,0.061960611257957404,0.17090202253937622,0.7061270609490923,-1.5590826628086207,0.43292442317175966
346,15:04:19,0.53972948829049,0.5178489685058594,0.004644981947240012,0.23392816774945877,3.355844341930371,2.0612598451904143,1.0952862041563134,0.8428630239163865,0.5441393136816821,0.05362199068654964,0.06225645137999171,0.1702015323482717,0.6912311518427668,1.3854147312201668,0.3513581645228529
347,15:04:20,1.2228433296243073,0.39809203147888184,0.004174759952138629,0.1865143591000016,1.926406746376356,2.1358682931057045,1.2257044261159646,0.8290051274720017,0.6831138413338174,0.05017531784031164,0.05998014033956907,0.16480906536765338,0.6236748526673526,-1.4367292468559627,0.44244062644474785
348,15:04:20,0.34741574736068165,0.5174180269241333,0.003900070666531974,0.14472600185181247,3.978302826440698,2.107438884917563,1.5466994694043346,0.9108201185388533,0.8754275822636257,0.07268008790145164,0.062002976195944075,0.1744993908963595,2.0186435347299585,1.7622907576792595,0.35109342051280684
349,15:04:21,1.092571881877703,0.3781750202178955,0.004848919851940537,0.1502852965645163,2.938925472606304,2.1657375605022486,1.6775137448323276,0.9070617559790112,0.7451561345170215,0.06739529571469192,0.05184968771780005,0.15966332662994767,2.0664233246588055,-1.5300797468149643,0.4730820693574638
350,15:04:21,0.8325821601777372,0.577551007270813,0.007350566695696159,0.13444565726692412,5.173367910533674,1.8480974789309594,3.105141740882734,1.3301458311845635,0.2599897216999658,0.06158099898790758,0.04464785212825016,0.1188872554052352,2.645762417415303,1.9193202512819354,0.37321341260551766
351,15:04:22,0.3993626973391743,0.4976189136505127,0.007027493370212312,0.15714617822294888,2.2251689993351196,0.926820403225703,3.191046456402044,1.3548657885205109,0.43321946283856294,0.09024983563302805,0.024097400249319972,0.06682912741526903,2.4511405463871228,1.550268325161871,0.3231598152159739
352,15:04:22,0.2405170478548566,0.4377950429916382,0.005840417717432445,0.13211765700871272,1.1621954722057741,0.9669403312735282,2.012584889965987,0.9439437366970956,0.15884564948431767,0.057759132353279286,0.023337084668944443,0.09963923189260564,0.8602839429339926,1.9800863032564266,0.26375799341845174
353,15:04:23,0.6811160671155047,0.5177340507507324,0.005846079732130249,0.11516667658374774,1.3913253023374614,1.7381391177324346,1.2589130096445045,0.49988665572417673,0.44059901926064804,0.022385628401269758,0.054182312529475786,0.16552769155622943,0.9204901407628611,-2.4395372027379825,0.3613498016430545
354,15:04:23,0.22475517660469127,0.43785691261291504,0.0034669497253688062,0.07341808511515563,0.8259645646367849,1.830786527928477,1.401057490532673,0.5671757156364873,0.4563608905108134,0.033134724988959786,0.052429523235937074,0.1559712871976951,0.8917129949129795,2.161345872975822,0.3193649152813011
355,15:04:24,1.106526966659358,0.49769508838653564,0.0013947902764542164,0.13731481446209398,0.5060980813851822,2.1330078397328425,1.3679551462608421,0.6785492659732253,0.8817717900546668,0.03898196479044109,0.06299855067854573,0.17211324810580958,0.8270005935706891,-2.128130147031144,0.4165472135612995
356,15:04:24,0.3496788321728157,0.5177499055862427,0.0016759327520176725,0.1410651125829737,3.5758064114843195,2.2247418256300557,1.00640007344221,0.7543009696722403,0.7568481344865423,0.04940225142835857,0.06319605935654683,0.17345493550200142,0.8072436746351774,1.5689853344029094,0.34402038303827254
357,15:04:24,1.226692353642338,0.3778740167617798,0.0037114370570989763,0.19750804364485908,2.9247685597569357,2.3305210395744416,1.3662965152078161,0.7947363245871631,0.8770135214695223,0.04877956347366662,0.0527493399638718,0.1549074303247594,0.7628228610304948,-1.6631829095763997,0.4642405690838421
358,15:04:25,1.0500012077674883,0.5756070613861084,0.00576885905054354,0.2179657208044584,2.986220343611998,2.427066811868526,1.6779615036067754,0.9899844046925664,0.1766911458748497,0.05027415206821882,0.053118115596245435,0.15763691937042265,0.8702546387930314,0.13539703287889482,0.3851975921183566
359,15:04:25,0.9904442298438332,0.3004109859466553,0.01253656281344746,0.11823467971045638,1.0750957067815445,2.4326341958431867,1.819537016433211,0.8933750816358471,0.05955697792365511,0.046492239160527936,0.05969180884538353,0.1710443073852122,0.8733442950111187,-0.24320744023136287,0.46572899673862034
360,15:04:26,0.2860920586071589,0.4378570318222046,0.011941399915211547,0.18646028870945733,1.49145715145006,2.204853929889361,1.8061561717849,0.8778367820124499,0.7043521712366743,0.049225001983660664,0.058775135309073585,0.16843192943372015,0.8966866836220442,2.2160088910761213,0.38222792487588014
361,15:04:26,1.3361390901431849,0.4779369831085205,0.010748506493622755,0.16854676178506817,1.559775593770565,2.410046088721612,1.7107545788091374,0.8437453159089421,1.050047031536026,0.046130297107450716,0.0565869065120841,0.1634245593372559,0.7879045647917889,-2.2830965807086225,0.4454528275608939
362,15:04:27,0.49593274991121783,0.47764599323272705,0.009942627863490825,0.18443540325954316,2.6171593778081217,2.2575059282268675,1.2536524223653491,0.7680076595471056,0.840206340231967,0.05931641397002463,0.05632139735433474,0.15978878413105094,1.1588488530866077,2.120080111042366,0.37097973874071033
363,15:04:27,1.108238919705896,0.4182659387588501,0.005318450842803202,0.19146977415535563,0.8742653586752906,2.2677071877868036,1.3623695545335728,0.7693890512667605,0.6123061697946781,0.05087414838822,0.05049359692433,0.1521730325904059,1.1267295974692708,-2.156199220623892,0.45141247775679477
364,15:04:28,1.6246356991114528,0.5940330028533936,0.004648465025393023,0.31854633625167394,4.105038739429809,2.135074486298816,1.7978682674100817,1.1507223391953634,0.5163967794055568,0.08098442005754376,0.04875055107450522,0.14219799080041634,0.7844948167371009,0.36098705211778076,0.41702155531995444
365,15:04:28,1.4392910370960117,0.3217899799346924,0.009855092467397242,0.19005918162231916,2.0788309378962824,2.284538286986547,2.0333835258594624,1.1417229396187032,0.1853446620154411,0.08236214786136603,0.051341841663836055,0.14254790146075724,0.7961452293941347,-0.391842192132413,0.4928263842469972
366,15:04:29,0.5793421686199585,0.49751901626586914,0.010127629494699874,0.25341336793839503,4.363004970085098,2.46351362447373,2.10329911596566,1.2942147923931138,0.8599488684760532,0.07733208166299863,0.054212252588559835,0.15330991088968107,0.7950348570553707,1.7916426282732005,0.4020441989033281
367,15:04:29,1.6723856285137753,0.3780630826950073,0.011324514364953586,0.20460574175589774,1.3782154569412346,2.5604344516000177,1.87700381662763,1.0753136768422695,1.0930434598938168,0.06094314791447099,0.05663027328625314,0.1604968930138239,1.0864644361416311,-1.742473291370198,0.4929751857454113
368,15:04:29,0.39674374534177403,0.49753499031066895,0.011643150398941772,0.3686544159251862,3.9523969111009625,2.2113478919130274,1.429245615751134,1.10077613243773,1.2756418831720011,0.07875401118940392,0.05432862749232336,0.15903027200311695,2.0326579355956396,1.9328580547265017,0.3703396525039063
369,15:04:30,1.5275779854111908,0.3781329393386841,0.006258067055036065,0.34713997427456667,0.8073193233884484,2.4238738686971875,1.5413641340687503,1.0284509617795632,1.130834240069417,0.06073586909804987,0.060874805990764856,0.1731970944656763,2.104342522267944,-1.7351143858620512,0.4815553542152146
370,15:04:30,0.4585373596672039,0.5177899599075317,0.004845100280466852,0.3844471315836698,3.5224408480216463,2.249100211838893,1.4038686983001263,1.006007433377314,1.069040625743987,0.0606212477733374,0.05855564972486154,0.1705487513208307,1.3970751098204883,1.6673348616507953,0.36750432237956876
371,15:04:31,1.3875924114131055,0.3947420120239258,0.004711479030557086,0.3746369490912632,1.989534977589293,2.209382488811433,1.67444026168453,0.9723208315989124,0.9290550517459016,0.05162178935393379,0.048458380291812715,0.15422179788887405,1.3762108352361886,-1.6606893220379315,0.4717057575047635
372,15:04:31,0.4583748051746451,0.5011900663375854,0.00434587064712133,0.3150205966132463,3.8011239189102715,2.067455669818598,1.6269955917347416,0.8559865661047817,0.9292176062384605,0.05947452446400867,0.04717584876656512,0.14325486037674498,0.8356715612380702,1.5311740147700608,0.35352099348947696
373,15:04:32,1.440500947722863,0.3781449794769287,0.004829340950062999,0.2985716954119746,0.6844443940207765,2.286640618997189,1.6835633479455783,0.8272753388178333,0.982126142548218,0.05166228862817205,0.05253131321426228,0.15326084783991695,0.7610942258908668,-1.5887414936562942,0.47286185542039455
374,15:04:32,0.39261335887066307,0.4378420114517212,0.0038744906879415453,0.2877467246135026,1.0457455137538394,2.0994869438116006,1.438836445070573,0.9026451233651133,1.0478875888522,0.06289510686234881,0.05314218835390445,0.16127193592595807,0.884098953435108,2.2046765307895315,0.366326168619092
375,15:04:33,1.2263414833123205,0.47817301750183105,0.0027651890222230692,0.26399671283740694,2.091249339496037,2.2639838233909453,1.5294831130533273,0.9507481750467282,0.8337281244416574,0.05075706542642784,0.0604169301214612,0.17561814438237003,0.8008624744783414,-2.272204354534787,0.45472021706517407
376,15:04:33,0.4304361040433182,0.49723196029663086,0.002648328649532061,0.252680594961928,3.807161710916462,2.142139060126362,1.7103917991320305,0.9780831840888892,0.7959053792690023,0.062304467225984,0.061193275044827855,0.17478623661540407,0.8433534753403943,1.658529717663506,0.3741066347397726
377,15:04:33,1.313431613702161,0.3983800411224365,0.002568668910885208,0.25727404083797967,1.2297326945266498,2.166455979591641,1.6751963096318327,0.9753550475089248,0.8829955096588429,0.056809460634263904,0.05697711378472145,0.16828237714526972,0.7876297718949989,-1.608850850006287,0.46256437948115137
378,15:04:34,0.37550275381363996,0.5174119472503662,0.0022829881160078003,0.2286059036603121,4.2208652274465415,2.1172704613712874,1.474573029433914,0.9406611034840415,0.9379288598885211,0.06000835048656007,0.05721942913642882,0.16574490798485944,0.8289723818148343,1.2580896882143708,0.3632873859291885
379,15:04:34,1.229260203791131,0.3781750202178955,0.003829335181148963,0.2200750483669058,1.5023199031766745,2.325894636661552,1.6283361311596496,0.9210472348873796,0.8537574499774911,0.049842212751368624,0.06849703592373502,0.1850020630922238,0.7984922946645905,-1.2715036190384112,0.47320637597222803
380,15:04:35,0.35414207364692873,0.5175449848175049,0.004617707783847891,0.2364430531165537,3.861232087619759,2.3377965323498047,1.3660873796173305,0.9241660575071561,0.8751181301442024,0.05873389100738359,0.0683321996623488,0.17848741876091587,0.8386088916292762,1.6064034765987534,0.3557646604375261
381,15:04:35,1.4156880624529784,0.3786090612411499,0.00532742799972823,0.2778149344164804,2.0101747822646865,2.299674668305911,1.729921654310997,0.8800072407305904,1.0615459888060497,0.05111396068023457,0.05154774889484752,0.15064337534513583,0.7847076022233563,-1.5275378371821278,0.48492862066453446
382,15:04:36,0.40933871094018026,0.4770469665527344,0.005005782556065696,0.2714006162696611,3.453257343198651,2.154132161567394,1.8706617992559518,0.9672632675656544,1.0063493515127981,0.06281745005549735,0.04806809682009054,0.14054206433448788,0.8084126090696125,1.6850767843737207,0.3612580131799387
383,15:04:36,1.2903730620933689,0.3989269733428955,0.004042478291881935,0.26438562687222505,0.6924566505586868,2.318656081643169,1.829363763319144,0.983372167261122,0.8810343511531886,0.05685633320031142,0.0629416474968949,0.16660594493006417,0.7311975904577828,-1.9119741260782317,0.47319752407679444
384,15:04:37,0.4906599327089941,0.41584503650665283,0.003349018976298623,0.26657939052218194,2.2727842615882894,2.15552265370446,1.8487243182192947,1.1020020123289027,0.7997131293843748,0.06224282531809458,0.06539729204471023,0.17498896308265452,1.14643617341837,2.592896745721787,0.4033491838315993
385,15:04:37,0.548921147270194,0.47959303855895996,0.0021199527525325836,0.23152045593295276,1.3611055628834283,2.4880632714477344,1.8388124328953184,0.964588351570228,0.058261214561199925,0.04229021494708143,0.12346152431222845,0.266406468484106,1.1419881661346245,-2.627401939416776,0.4286526768167786
386,15:04:37,0.21325192930399153,0.23594999313354492,0.009856267082594173,0.16916366554288328,2.7650093134698333,2.6702821519128164,2.0617449805264467,1.1985118846665972,0.3356692179662025,0.04385807919751755,0.12924501369460326,0.2800826462044014,0.828482526839268,1.0261070824891028,0.40808706775472425
387,15:04:38,0.3436829439024211,0.26178598403930664,0.010989597650788595,0.17597323720906782,0.7281030481145015,2.569063810165818,1.9456420428385155,1.1827662792009834,0.13043101459842957,0.05813441858462946,0.12843430849310453,0.2717270671666762,0.8321178905375949,1.5057093354465296,0.33900011490217163
388,15:04:38,1.1518481996678105,0.47791099548339844,0.013836986540712814,0.13042727962694411,1.8775254069915401,2.286771855179314,1.7620725616195323,1.2245869613933287,0.8081652557653893,0.057833483624894565,0.07848607811850258,0.1887193877335231,0.7466897895626893,-2.2119747780240706,0.41203421760443454
389,15:04:38,0.6049120588701429,0.49747300148010254,0.016868617037249577,0.12966681476759845,3.8071007926146976,2.038653860311242,1.5962642282394117,0.9007977706044915,0.5469361407976676,0.0588342772859605,0.05108382626772484,0.1480685758054409,0.7536986249687685,1.5413101907439768,0.3718804596235284
390,15:04:39,1.4627897420375364,0.39389491081237793,0.014521723036142475,0.28591336358883523,1.5081079706191294,2.1781801783521035,1.6435381220848848,0.90696434630531,0.8578776831673935,0.056233327351908634,0.050563410397026574,0.1465311038921669,0.7113991858860264,-1.6175414391626493,0.45669868402546243
391,15:04:39,0.3781361056857717,0.5217010974884033,0.011213790797256706,0.2466633964724339,4.023074993406539,2.151240065476744,1.4572384833698826,0.9752716049942444,1.0846536363517647,0.06748406139384655,0.05107462722090468,0.15005200429082097,1.3520541057577995,1.6239496005928438,0.3815791507174175
392,15:04:40,0.98241587520052,0.3750889301300049,0.0042203910510806965,0.18627193440147777,0.4785476189967236,2.281739197441645,1.5041104909137875,0.9696937740497191,0.6042797695147483,0.059516919967613886,0.059431225820729496,0.16412731891317678,1.356373418560801,-1.7383836284783551,0.4759350843974015
393,15:04:40,0.3949783057175791,0.5210870504379272,0.005126389409016952,0.21159685940947665,3.3706315557580213,2.299164891395031,1.713208682153363,0.9879143936459289,0.5874375694829409,0.06960833021817822,0.05932739492089097,0.15516515891824853,0.7696313546977077,1.6909579740146305,0.351706146978741
394,15:04:41,1.3512667225665125,0.3778189420700073,0.005858529885436781,0.26339667445490766,1.176124863766511,2.2690718714907834,1.834744079491037,0.9915143636068655,0.9562884168489334,0.06377813154947985,0.05359307594891705,0.1439425895228061,0.6956873458012097,-1.6192576445750249,0.48167999116334426
395,15:04:41,0.3916174379028772,0.5374890565872192,0.006821643314729897,0.19891024318595274,3.8725509193813656,2.1979593659549366,2.0011810009695363,1.088477274990611,0.9596492846636353,0.07084187240988293,0.05436428172170795,0.1534235094016883,0.7207322847630914,1.3882158496141166,0.35145937608542804
